Tempo(s)    P0(KPa) P0+Coluna(KPa)  P1(KPa) P1+Coluna(KPa)
0.003	-2.22	-2.22	-2.22	-2.22
0.030	-2.22	-2.22	-2.22	-2.22
0.060	14.15	14.15	-2.22	-2.22
0.090	14.15	14.15	7.56	7.56
0.120	14.15	14.15	7.56	7.56
0.149	14.17	14.17	7.56	7.56
0.179	14.17	14.17	7.68	7.68
0.209	14.17	14.17	7.68	7.68
0.239	9.54	9.54	7.68	7.68
0.269	9.54	9.54	7.57	7.57
0.298	9.54	9.54	7.57	7.57
0.328	9.59	9.59	7.57	7.57
0.358	9.59	9.59	7.60	7.60
0.388	9.59	9.59	7.60	7.60
0.417	9.74	9.74	7.60	7.60
0.447	9.74	9.74	7.67	7.67
0.477	9.74	9.74	7.67	7.67
0.507	9.63	9.63	7.67	7.67
0.537	9.63	9.63	7.52	7.52
0.566	9.63	9.63	7.52	7.52
0.596	9.72	9.72	7.52	7.52
0.626	-0.00	9.72	0.15	7.67
0.655	-0.00	9.72	0.15	7.67
0.685	0.00	9.72	0.15	7.67
0.715	0.00	9.72	0.04	7.56
0.745	0.00	9.72	0.04	7.56
0.774	-0.07	9.65	0.04	7.56
0.804	-0.07	9.65	0.08	7.60
0.834	-0.07	9.65	0.08	7.60
0.864	0.03	9.74	0.08	7.60
0.894	0.03	9.74	0.14	7.66
0.923	0.03	9.74	0.14	7.66
0.953	-0.15	9.57	0.14	7.66
0.983	-0.15	9.57	0.00	7.52
1.013	-0.15	9.57	0.00	7.52
1.042	-0.00	9.72	0.00	7.52
1.072	-0.00	9.72	0.15	7.67
1.102	-0.00	9.72	0.15	7.67
1.132	-0.09	9.63	0.15	7.67
1.161	-0.09	9.63	0.05	7.57
1.191	-0.09	9.63	0.05	7.57
1.221	-0.09	9.63	0.05	7.57
1.251	-0.09	9.63	0.09	7.61
1.281	-0.09	9.63	0.09	7.61
1.310	-0.05	9.67	0.09	7.61
1.340	-0.05	9.67	0.14	7.66
1.370	-0.05	9.67	0.14	7.66
1.400	-0.17	9.55	0.14	7.66
1.430	-0.17	9.55	0.00	7.52
1.459	-0.17	9.55	0.00	7.52
1.489	-0.04	9.68	0.00	7.52
1.519	-0.04	9.68	0.15	7.67
1.549	-0.04	9.68	0.15	7.67
1.578	-0.08	9.64	0.15	7.67
1.608	-0.08	9.64	0.04	7.56
1.638	-0.08	9.64	0.04	7.56
1.668	-0.10	9.62	0.04	7.56
1.698	-0.10	9.62	0.09	7.61
1.727	-0.10	9.62	0.09	7.61
1.757	-0.01	9.71	0.09	7.61
1.787	-0.01	9.71	0.13	7.65
1.817	-0.01	9.71	0.13	7.65
1.847	-0.09	9.63	0.13	7.65
1.876	-0.09	9.63	0.00	7.52
1.906	-0.09	9.63	0.00	7.52
1.936	-0.03	9.69	0.00	7.52
1.966	-0.03	9.69	0.15	7.67
1.995	-0.03	9.69	0.15	7.67
2.025	-0.09	9.63	0.15	7.67
2.055	-0.09	9.63	0.04	7.56
2.085	-0.09	9.63	0.04	7.56
2.114	-0.06	9.66	0.04	7.56
2.144	-0.06	9.66	0.10	7.62
2.174	-0.06	9.66	0.10	7.62
2.204	0.02	9.74	0.10	7.62
2.234	0.02	9.74	0.13	7.65
2.263	0.02	9.74	0.13	7.65
2.293	-0.14	9.58	0.13	7.65
2.323	-0.14	9.58	0.00	7.52
2.353	-0.14	9.58	0.00	7.52
2.382	0.08	9.80	0.00	7.52
2.412	0.08	9.80	0.15	7.67
2.442	0.08	9.80	0.15	7.67
2.472	-0.05	9.67	0.15	7.67
2.502	-0.05	9.67	0.04	7.55
2.531	-0.05	9.67	0.04	7.55
2.561	-0.04	9.68	0.04	7.55
2.591	-0.04	9.68	0.10	7.62
2.621	-0.04	9.68	0.10	7.62
2.651	-0.01	9.70	0.10	7.62
2.680	-0.01	9.70	0.13	7.64
2.710	-0.01	9.70	0.13	7.64
2.740	-0.11	9.61	0.13	7.64
2.770	-0.11	9.61	0.01	7.53
2.799	-0.11	9.61	0.01	7.53
2.829	0.04	9.76	0.01	7.53
2.859	0.04	9.76	0.15	7.67
2.889	0.04	9.76	0.15	7.67
2.919	-0.02	9.70	0.15	7.67
2.948	-0.02	9.70	0.04	7.55
2.978	-0.02	9.70	0.04	7.55
3.008	0.03	9.75	0.04	7.55
3.038	0.03	9.75	0.10	7.62
3.068	0.03	9.75	0.10	7.62
3.097	0.11	9.83	0.10	7.62
3.127	0.11	9.83	0.12	7.64
3.157	0.11	9.83	0.12	7.64
3.187	0.05	9.77	0.12	7.64
3.216	0.05	9.77	0.00	7.52
3.246	0.05	9.77	0.00	7.52
3.276	0.20	9.92	0.00	7.52
3.306	0.20	9.92	0.16	7.68
3.336	0.20	9.92	0.16	7.68
3.365	0.16	9.88	0.16	7.68
3.395	0.16	9.88	0.03	7.55
3.425	0.16	9.88	0.03	7.55
3.455	0.35	10.07	0.03	7.55
3.485	0.35	10.07	0.10	7.62
3.514	0.35	10.07	0.10	7.62
3.544	0.38	10.09	0.10	7.62
3.574	0.38	10.09	0.11	7.63
3.604	0.38	10.09	0.11	7.63
3.633	0.30	10.02	0.11	7.63
3.663	0.30	10.02	0.00	7.52
3.693	0.30	10.02	0.00	7.52
3.723	0.51	10.23	0.00	7.52
3.753	0.51	10.23	0.15	7.67
3.782	0.51	10.23	0.15	7.67
3.812	0.56	10.28	0.15	7.67
3.842	0.56	10.28	0.03	7.55
3.872	0.56	10.28	0.03	7.55
3.901	1.07	10.79	0.03	7.55
3.931	1.07	10.79	0.10	7.62
3.961	1.07	10.79	0.10	7.62
3.991	1.39	11.11	0.10	7.62
4.021	1.39	11.11	0.11	7.63
4.050	1.39	11.11	0.11	7.63
4.080	1.24	10.96	0.11	7.63
4.110	1.24	10.96	0.01	7.53
4.140	1.24	10.96	0.01	7.53
4.169	1.55	11.27	0.01	7.53
4.199	1.55	11.27	0.15	7.67
4.229	1.55	11.27	0.15	7.67
4.259	1.91	11.63	0.15	7.67
4.289	1.91	11.63	0.03	7.55
4.318	1.91	11.63	0.03	7.55
4.348	1.89	11.61	0.03	7.55
4.378	1.89	11.61	0.11	7.63
4.408	1.89	11.61	0.11	7.63
4.437	1.66	11.38	0.11	7.63
4.467	1.66	11.38	0.10	7.62
4.497	1.66	11.38	0.10	7.62
4.527	1.05	10.77	0.10	7.62
4.557	1.05	10.77	0.00	7.52
4.586	1.05	10.77	0.00	7.52
4.616	0.99	10.71	0.00	7.52
4.646	0.99	10.71	0.16	7.68
4.676	0.99	10.71	0.16	7.68
4.705	0.89	10.60	0.16	7.68
4.735	0.89	10.60	0.03	7.55
4.765	0.89	10.60	0.03	7.55
4.795	0.83	10.55	0.03	7.55
4.825	0.83	10.55	0.11	7.63
4.854	0.83	10.55	0.11	7.63
4.884	0.70	10.42	0.11	7.63
4.914	0.70	10.42	0.10	7.62
4.944	0.70	10.42	0.10	7.62
4.973	0.78	10.50	0.10	7.62
5.003	0.78	10.50	0.01	7.53
5.033	0.78	10.50	0.01	7.53
5.063	1.30	11.02	0.01	7.53
5.093	1.30	11.02	0.15	7.67
5.122	1.30	11.02	0.15	7.67
5.152	1.39	11.11	0.15	7.67
5.182	1.39	11.11	0.03	7.55
5.212	1.39	11.11	0.03	7.55
5.241	1.72	11.44	0.03	7.55
5.271	1.72	11.44	0.11	7.63
5.301	1.72	11.44	0.11	7.63
5.331	2.28	12.00	0.11	7.63
5.361	2.28	12.00	0.09	7.61
5.390	2.28	12.00	0.09	7.61
5.420	2.48	12.20	0.09	7.61
5.450	2.48	12.20	0.01	7.53
5.480	2.48	12.20	0.01	7.53
5.509	2.73	12.44	0.01	7.53
5.539	2.73	12.44	0.16	7.68
5.569	2.73	12.44	0.16	7.68
5.599	2.87	12.59	0.16	7.68
5.629	2.87	12.59	0.02	7.54
5.658	2.87	12.59	0.02	7.54
5.688	2.87	12.59	0.02	7.54
5.718	2.87	12.59	0.11	7.63
5.748	2.87	12.59	0.11	7.63
5.777	2.79	12.51	0.11	7.63
5.807	2.79	12.51	0.09	7.60
5.837	2.79	12.51	0.09	7.60
5.867	2.71	12.43	0.09	7.60
5.897	2.71	12.43	0.01	7.53
5.926	2.71	12.43	0.01	7.53
5.956	2.89	12.61	0.01	7.53
5.986	2.89	12.61	0.16	7.68
6.016	2.89	12.61	0.16	7.68
6.045	2.61	12.33	0.16	7.68
6.075	2.61	12.33	0.02	7.54
6.105	2.61	12.33	0.02	7.54
6.135	2.52	12.24	0.02	7.54
6.165	2.52	12.24	0.11	7.63
6.194	2.52	12.24	0.11	7.63
6.224	2.30	12.02	0.11	7.63
6.254	2.30	12.02	0.08	7.60
6.284	2.30	12.02	0.08	7.60
6.313	2.34	12.06	0.08	7.60
6.343	2.34	12.06	0.01	7.53
6.373	2.34	12.06	0.01	7.53
6.403	2.43	12.15	0.01	7.53
6.433	2.43	12.15	0.16	7.68
6.462	2.43	12.15	0.16	7.68
6.492	2.40	12.12	0.16	7.68
6.522	2.40	12.12	0.02	7.54
6.552	2.40	12.12	0.02	7.54
6.581	2.36	12.08	0.02	7.54
6.611	2.36	12.08	0.11	7.63
6.641	2.36	12.08	0.11	7.63
6.671	2.04	11.76	0.11	7.63
6.701	2.04	11.76	0.08	7.60
6.730	2.04	11.76	0.08	7.60
6.760	2.04	11.76	0.08	7.60
6.790	2.04	11.76	0.01	7.53
6.820	2.04	11.76	0.01	7.53
6.849	2.25	11.97	0.01	7.53
6.879	2.25	11.97	0.16	7.68
6.909	2.25	11.97	0.16	7.68
6.939	2.43	12.15	0.16	7.68
6.969	2.43	12.15	0.02	7.54
6.998	2.43	12.15	0.02	7.54
7.028	2.50	12.22	0.02	7.54
7.058	2.50	12.22	0.11	7.63
7.088	2.50	12.22	0.11	7.63
7.117	2.49	12.20	0.11	7.63
7.147	2.49	12.20	0.08	7.60
7.177	2.49	12.20	0.08	7.60
7.207	2.53	12.25	0.08	7.60
7.237	2.53	12.25	0.01	7.53
7.266	2.53	12.25	0.01	7.53
7.296	2.57	12.29	0.01	7.53
7.326	2.57	12.29	0.15	7.67
7.356	2.57	12.29	0.15	7.67
7.385	2.70	12.42	0.15	7.67
7.415	2.70	12.42	0.02	7.54
7.445	2.70	12.42	0.02	7.54
7.475	2.55	12.27	0.02	7.54
7.505	2.55	12.27	0.11	7.63
7.534	2.55	12.27	0.11	7.63
7.564	2.46	12.18	0.11	7.63
7.594	2.46	12.18	0.07	7.59
7.624	2.46	12.18	0.07	7.59
7.653	2.34	12.05	0.07	7.59
7.683	2.34	12.05	0.02	7.54
7.713	2.34	12.05	0.02	7.54
7.743	2.43	12.15	0.02	7.54
7.773	2.43	12.15	0.16	7.68
7.802	2.43	12.15	0.16	7.68
7.832	2.32	12.04	0.16	7.68
7.862	2.32	12.04	0.01	7.53
7.892	2.32	12.04	0.01	7.53
7.921	2.83	12.55	0.01	7.53
7.951	2.83	12.55	0.11	7.63
7.981	2.83	12.55	0.11	7.63
8.011	15.95	25.67	0.11	7.63
8.041	15.95	25.67	0.08	7.60
8.070	15.95	25.67	0.08	7.60
8.100	34.94	44.66	0.08	7.60
8.130	34.94	44.66	0.03	7.54
8.160	34.94	44.66	0.03	7.54
8.189	29.34	39.06	0.03	7.54
8.219	29.34	39.06	0.16	7.68
8.249	29.34	39.06	0.16	7.68
8.279	27.92	37.64	0.16	7.68
8.308	27.92	37.64	0.01	7.53
8.338	27.92	37.64	0.01	7.53
8.368	28.55	38.27	0.01	7.53
8.398	28.55	38.27	0.12	7.64
8.428	28.55	38.27	0.12	7.64
8.457	28.42	38.14	0.12	7.64
8.487	28.42	38.14	0.08	7.60
8.517	28.42	38.14	0.08	7.60
8.547	28.48	38.20	0.08	7.60
8.576	28.48	38.20	0.03	7.55
8.606	28.48	38.20	0.03	7.55
8.636	28.80	38.52	0.03	7.55
8.666	28.80	38.52	0.16	7.68
8.696	28.80	38.52	0.16	7.68
8.725	28.93	38.65	0.16	7.68
8.755	28.93	38.65	0.02	7.54
8.785	28.93	38.65	0.02	7.54
8.815	28.70	38.42	0.02	7.54
8.844	28.70	38.42	0.12	7.64
8.874	28.70	38.42	0.12	7.64
8.904	28.99	38.70	0.12	7.64
8.934	28.99	38.70	0.07	7.59
8.963	28.99	38.70	0.07	7.59
8.993	29.33	39.05	0.07	7.59
9.023	29.33	39.05	0.03	7.55
9.053	29.33	39.05	0.03	7.55
9.083	29.51	39.23	0.03	7.55
9.112	29.51	39.23	0.16	7.68
9.142	29.51	39.23	0.16	7.68
9.172	29.72	39.44	0.16	7.68
9.202	29.72	39.44	0.01	7.53
9.231	29.72	39.44	0.01	7.53
9.261	29.56	39.28	0.01	7.53
9.291	29.56	39.28	0.12	7.64
9.321	29.56	39.28	0.12	7.64
9.350	29.64	39.36	0.12	7.64
9.380	29.64	39.36	0.07	7.59
9.410	29.64	39.36	0.07	7.59
9.440	29.39	39.11	0.07	7.59
9.470	29.39	39.11	0.03	7.55
9.499	29.39	39.11	0.03	7.55
9.529	29.43	39.15	0.03	7.55
9.559	29.43	39.15	0.16	7.68
9.589	29.43	39.15	0.16	7.68
9.618	29.13	38.85	0.16	7.68
9.648	29.13	38.85	0.01	7.53
9.678	29.13	38.85	0.01	7.53
9.708	29.08	38.80	0.01	7.53
9.737	29.08	38.80	0.12	7.64
9.767	29.08	38.80	0.12	7.64
9.797	29.28	39.00	0.12	7.64
9.827	29.28	39.00	0.07	7.59
9.857	29.28	39.00	0.07	7.59
9.886	29.61	39.33	0.07	7.59
9.916	29.61	39.33	0.03	7.55
9.946	29.61	39.33	0.03	7.55
9.976	29.60	39.32	0.03	7.55
10.005	29.60	39.32	0.16	7.68
10.035	29.60	39.32	0.16	7.68
10.065	29.33	39.05	0.16	7.68
10.095	29.33	39.05	0.01	7.53
10.124	29.33	39.05	0.01	7.53
10.154	29.33	39.04	0.01	7.53
10.184	29.33	39.04	0.12	7.64
10.214	29.33	39.04	0.12	7.64
10.243	29.39	39.11	0.12	7.64
10.273	29.39	39.11	0.07	7.59
10.303	29.39	39.11	0.07	7.59
10.333	29.38	39.10	0.07	7.59
10.363	29.38	39.10	0.03	7.55
10.392	29.38	39.10	0.03	7.55
10.422	29.40	39.12	0.03	7.55
10.452	29.40	39.12	0.16	7.68
10.482	29.40	39.12	0.16	7.68
10.511	29.21	38.93	0.16	7.68
10.541	29.21	38.93	0.01	7.53
10.571	29.21	38.93	0.01	7.53
10.601	29.12	38.84	0.01	7.53
10.630	29.12	38.84	0.12	7.64
10.660	29.12	38.84	0.12	7.64
10.690	29.10	38.82	0.12	7.64
10.720	29.10	38.82	0.06	7.58
10.749	29.10	38.82	0.06	7.58
10.779	29.08	38.80	0.06	7.58
10.809	29.08	38.80	0.03	7.55
10.839	29.08	38.80	0.03	7.55
10.869	29.05	38.77	0.03	7.55
10.898	29.05	38.77	0.16	7.68
10.928	29.05	38.77	0.16	7.68
10.958	29.07	38.79	0.16	7.68
10.988	29.07	38.79	0.01	7.53
11.017	29.07	38.79	0.01	7.53
11.047	28.89	38.60	0.01	7.53
11.077	28.89	38.60	0.12	7.64
11.107	28.89	38.60	0.12	7.64
11.136	29.14	38.86	0.12	7.64
11.166	29.14	38.86	0.06	7.58
11.196	29.14	38.86	0.06	7.58
11.226	28.89	38.61	0.06	7.58
11.255	28.89	38.61	0.03	7.55
11.285	28.89	38.61	0.03	7.55
11.315	28.99	38.71	0.03	7.55
11.345	28.99	38.71	0.16	7.68
11.375	28.99	38.71	0.16	7.68
11.404	28.91	38.63	0.16	7.68
11.434	28.91	38.63	0.01	7.53
11.464	28.91	38.63	0.01	7.53
11.494	28.70	38.42	0.01	7.53
11.523	28.70	38.42	0.12	7.64
11.553	28.70	38.42	0.12	7.64
11.583	28.82	38.54	0.12	7.64
11.613	28.82	38.54	0.06	7.58
11.642	28.82	38.54	0.06	7.58
11.672	28.89	38.61	0.06	7.58
11.702	28.89	38.61	0.03	7.55
11.732	28.89	38.61	0.03	7.55
11.761	28.84	38.55	0.03	7.55
11.791	28.84	38.55	0.16	7.68
11.821	28.84	38.55	0.16	7.68
11.851	28.66	38.38	0.16	7.68
11.880	28.66	38.38	0.01	7.53
11.910	28.66	38.38	0.01	7.53
11.940	28.63	38.35	0.01	7.53
11.970	28.63	38.35	0.12	7.64
11.999	28.63	38.35	0.12	7.64
12.029	28.71	38.43	0.12	7.64
12.059	28.71	38.43	0.06	7.58
12.089	28.71	38.43	0.06	7.58
12.119	28.35	38.07	0.06	7.58
12.148	28.35	38.07	0.04	7.56
12.178	28.35	38.07	0.04	7.56
12.208	28.53	38.25	0.04	7.56
12.238	28.53	38.25	0.16	7.68
12.267	28.53	38.25	0.16	7.68
12.297	28.18	37.90	0.16	7.68
12.327	28.18	37.90	0.01	7.53
12.357	28.18	37.90	0.01	7.53
12.386	27.90	37.62	0.01	7.53
12.416	27.90	37.62	0.13	7.64
12.446	27.90	37.62	0.13	7.64
12.476	27.79	37.51	0.13	7.64
12.505	27.79	37.51	0.06	7.58
12.535	27.79	37.51	0.06	7.58
12.565	27.72	37.44	0.06	7.58
12.595	27.72	37.44	0.04	7.56
12.625	27.72	37.44	0.04	7.56
12.654	27.78	37.50	0.04	7.56
12.684	27.78	37.50	0.16	7.68
12.714	27.78	37.50	0.16	7.68
12.744	27.68	37.39	0.16	7.68
12.773	27.68	37.39	0.01	7.53
12.803	27.68	37.39	0.01	7.53
12.833	27.83	37.55	0.01	7.53
12.863	27.83	37.55	0.13	7.65
12.892	27.83	37.55	0.13	7.65
12.922	27.91	37.63	0.13	7.65
12.952	27.91	37.63	0.06	7.58
12.982	27.91	37.63	0.06	7.58
13.011	27.83	37.55	0.06	7.58
13.041	27.83	37.55	0.04	7.56
13.071	27.83	37.55	0.04	7.56
13.101	27.91	37.63	0.04	7.56
13.130	27.91	37.63	0.16	7.68
13.160	27.91	37.63	0.16	7.68
13.190	27.99	37.71	0.16	7.68
13.220	27.99	37.71	0.01	7.53
13.250	27.99	37.71	0.01	7.53
13.279	27.95	37.67	0.01	7.53
13.309	27.95	37.67	0.13	7.65
13.339	27.95	37.67	0.13	7.65
13.369	27.94	37.66	0.13	7.65
13.398	27.94	37.66	0.06	7.58
13.428	27.94	37.66	0.06	7.58
13.458	27.78	37.49	0.06	7.58
13.488	27.78	37.49	0.04	7.56
13.517	27.78	37.49	0.04	7.56
13.547	27.90	37.62	0.04	7.56
13.577	27.90	37.62	0.16	7.68
13.607	27.90	37.62	0.16	7.68
13.636	27.79	37.50	0.16	7.68
13.666	27.79	37.50	0.01	7.53
13.696	27.79	37.50	0.01	7.53
13.726	27.71	37.43	0.01	7.53
13.755	27.71	37.43	0.13	7.65
13.785	27.71	37.43	0.13	7.65
13.815	27.73	37.45	0.13	7.65
13.845	27.73	37.45	0.06	7.58
13.874	27.73	37.45	0.06	7.58
13.904	27.35	37.07	0.06	7.58
13.934	27.35	37.07	0.05	7.57
13.964	27.35	37.07	0.05	7.57
13.994	27.57	37.29	0.05	7.57
14.023	27.57	37.29	0.16	7.68
14.053	27.57	37.29	0.16	7.68
14.083	27.61	37.33	0.16	7.68
14.113	27.61	37.33	0.01	7.53
14.142	27.61	37.33	0.01	7.53
14.172	27.40	37.12	0.01	7.53
14.202	27.40	37.12	0.13	7.65
14.232	27.40	37.12	0.13	7.65
14.261	27.29	37.01	0.13	7.65
14.291	27.29	37.01	0.06	7.58
14.321	27.29	37.01	0.06	7.58
14.351	27.28	36.99	0.06	7.58
14.380	27.28	36.99	0.05	7.57
14.410	27.28	36.99	0.05	7.57
14.440	27.51	37.23	0.05	7.57
14.470	27.51	37.23	0.16	7.68
14.499	27.51	37.23	0.16	7.68
14.529	27.38	37.10	0.16	7.68
14.559	27.38	37.10	0.01	7.53
14.589	27.38	37.10	0.01	7.53
14.619	27.49	37.21	0.01	7.53
14.648	27.49	37.21	0.13	7.65
14.678	27.49	37.21	0.13	7.65
14.708	27.27	36.99	0.13	7.65
14.738	27.27	36.99	0.06	7.58
14.767	27.27	36.99	0.06	7.58
14.797	26.96	36.68	0.06	7.58
14.827	26.96	36.68	0.05	7.57
14.857	26.96	36.68	0.05	7.57
14.886	27.20	36.92	0.05	7.57
14.916	27.20	36.92	0.16	7.68
14.946	27.20	36.92	0.16	7.68
14.976	27.13	36.85	0.16	7.68
15.005	27.13	36.85	0.01	7.53
15.035	27.13	36.85	0.01	7.53
15.065	26.89	36.61	0.01	7.53
15.095	26.89	36.61	0.14	7.65
15.124	26.89	36.61	0.14	7.65
15.154	26.87	36.59	0.14	7.65
15.184	26.87	36.59	0.06	7.58
15.214	26.87	36.59	0.06	7.58
15.244	26.85	36.57	0.06	7.58
15.273	26.85	36.57	0.05	7.57
15.303	26.85	36.57	0.05	7.57
15.333	26.99	36.71	0.05	7.57
15.363	26.99	36.71	0.16	7.68
15.392	26.99	36.71	0.16	7.68
15.422	26.99	36.71	0.16	7.68
15.452	26.99	36.71	0.01	7.53
15.482	26.99	36.71	0.01	7.53
15.511	26.94	36.66	0.01	7.53
15.541	26.94	36.66	0.13	7.65
15.571	26.94	36.66	0.13	7.65
15.601	27.05	36.77	0.13	7.65
15.630	27.05	36.77	0.05	7.57
15.660	27.05	36.77	0.05	7.57
15.690	26.92	36.64	0.05	7.57
15.720	26.92	36.64	0.06	7.58
15.750	26.92	36.64	0.06	7.58
15.779	27.03	36.75	0.06	7.58
15.809	27.03	36.75	0.16	7.68
15.839	27.03	36.75	0.16	7.68
15.869	27.16	36.88	0.16	7.68
15.898	27.16	36.88	0.00	7.52
15.928	27.16	36.88	0.00	7.52
15.958	26.99	36.71	0.00	7.52
15.988	26.99	36.71	0.14	7.65
16.017	26.99	36.71	0.14	7.65
16.047	26.99	36.70	0.14	7.65
16.077	26.99	36.70	0.05	7.57
16.107	26.99	36.70	0.05	7.57
16.136	27.05	36.77	0.05	7.57
16.166	27.05	36.77	0.06	7.58
16.196	27.05	36.77	0.06	7.58
16.226	27.22	36.94	0.06	7.58
16.255	27.22	36.94	0.16	7.68
16.285	27.22	36.94	0.16	7.68
16.315	27.17	36.89	0.16	7.68
16.345	27.17	36.89	0.01	7.53
16.375	27.17	36.89	0.01	7.53
16.404	27.21	36.93	0.01	7.53
16.434	27.21	36.93	0.14	7.66
16.464	27.21	36.93	0.14	7.66
16.494	27.32	37.04	0.14	7.66
16.523	27.32	37.04	0.05	7.57
16.553	27.32	37.04	0.05	7.57
16.583	27.25	36.97	0.05	7.57
16.613	27.25	36.97	0.06	7.58
16.642	27.25	36.97	0.06	7.58
16.672	27.35	37.07	0.06	7.58
16.702	27.35	37.07	0.15	7.67
16.732	27.35	37.07	0.15	7.67
16.761	27.45	37.17	0.15	7.67
16.791	27.45	37.17	0.00	7.52
16.821	27.45	37.17	0.00	7.52
16.851	27.49	37.21	0.00	7.52
16.880	27.49	37.21	0.14	7.66
16.910	27.49	37.21	0.14	7.66
16.940	27.45	37.17	0.14	7.66
16.970	27.45	37.17	0.05	7.57
17.000	27.45	37.17	0.05	7.57
17.029	27.42	37.14	0.05	7.57
17.059	27.42	37.14	0.07	7.59
17.089	27.42	37.14	0.07	7.59
17.119	27.55	37.27	0.07	7.59
17.148	27.55	37.27	0.15	7.67
17.178	27.55	37.27	0.15	7.67
17.208	27.55	37.27	0.15	7.67
17.238	27.55	37.27	0.00	7.52
17.267	27.55	37.27	0.00	7.52
17.297	27.54	37.26	0.00	7.52
17.327	27.54	37.26	0.14	7.66
17.357	27.54	37.26	0.14	7.66
17.386	27.75	37.47	0.14	7.66
17.416	27.75	37.47	0.05	7.57
17.446	27.75	37.47	0.05	7.57
17.476	27.69	37.41	0.05	7.57
17.505	27.69	37.41	0.08	7.60
17.535	27.69	37.41	0.08	7.60
17.565	27.92	37.64	0.08	7.60
17.595	27.92	37.64	0.15	7.67
17.624	27.92	37.64	0.15	7.67
17.654	27.85	37.57	0.15	7.67
17.684	27.85	37.57	0.00	7.52
17.714	27.85	37.57	0.00	7.52
17.743	27.84	37.56	0.00	7.52
17.773	27.84	37.56	0.14	7.66
17.803	27.84	37.56	0.14	7.66
17.833	27.94	37.66	0.14	7.66
17.862	27.94	37.66	0.05	7.57
17.892	27.94	37.66	0.05	7.57
17.922	27.96	37.68	0.05	7.57
17.952	27.96	37.68	0.08	7.60
17.982	27.96	37.68	0.08	7.60
18.011	28.10	37.82	0.08	7.60
18.041	28.10	37.82	0.15	7.67
18.071	28.10	37.82	0.15	7.67
18.101	27.84	37.56	0.15	7.67
18.130	27.84	37.56	0.00	7.52
18.160	27.84	37.56	0.00	7.52
18.190	27.60	37.32	0.00	7.52
18.220	27.60	37.32	0.15	7.67
18.249	27.60	37.32	0.15	7.67
18.279	27.78	37.49	0.15	7.67
18.309	27.78	37.49	0.05	7.57
18.339	27.78	37.49	0.05	7.57
18.368	27.78	37.50	0.05	7.57
18.398	27.78	37.50	0.08	7.60
18.428	27.78	37.50	0.08	7.60
18.458	27.68	37.40	0.08	7.60
18.487	27.68	37.40	0.15	7.67
18.517	27.68	37.40	0.15	7.67
18.547	27.74	37.46	0.15	7.67
18.577	27.74	37.46	0.00	7.52
18.606	27.74	37.46	0.00	7.52
18.636	27.72	37.44	0.00	7.52
18.666	27.72	37.44	0.14	7.66
18.696	27.72	37.44	0.14	7.66
18.726	27.72	37.44	0.14	7.66
18.755	27.72	37.44	0.05	7.57
18.785	27.72	37.44	0.05	7.57
18.815	27.58	37.30	0.05	7.57
18.845	27.58	37.30	0.08	7.60
18.874	27.58	37.30	0.08	7.60
18.904	27.85	37.57	0.08	7.60
18.934	27.85	37.57	0.15	7.67
18.964	27.85	37.57	0.15	7.67
18.993	27.72	37.44	0.15	7.67
19.023	27.72	37.44	0.00	7.52
19.053	27.72	37.44	0.00	7.52
19.083	27.53	37.25	0.00	7.52
19.112	27.53	37.25	0.15	7.67
19.142	27.53	37.25	0.15	7.67
19.172	27.45	37.17	0.15	7.67
19.202	27.45	37.17	0.04	7.56
19.231	27.45	37.17	0.04	7.56
19.261	27.53	37.25	0.04	7.56
19.291	27.53	37.25	0.09	7.61
19.321	27.53	37.25	0.09	7.61
19.351	27.46	37.18	0.09	7.61
19.380	27.46	37.18	0.14	7.66
19.410	27.46	37.18	0.14	7.66
19.440	27.48	37.20	0.14	7.66
19.470	27.48	37.20	0.01	7.53
19.499	27.48	37.20	0.01	7.53
19.529	27.56	37.28	0.01	7.53
19.559	27.56	37.28	0.15	7.67
19.589	27.56	37.28	0.15	7.67
19.618	27.21	36.93	0.15	7.67
19.648	27.21	36.93	0.05	7.57
19.678	27.21	36.93	0.05	7.57
19.708	27.20	36.92	0.05	7.57
19.737	27.20	36.92	0.09	7.61
19.767	27.20	36.92	0.09	7.61
19.797	27.37	37.09	0.09	7.61
19.827	27.37	37.09	0.14	7.66
19.856	27.37	37.09	0.14	7.66
19.886	27.20	36.92	0.14	7.66
19.916	27.20	36.92	0.00	7.52
19.946	27.20	36.92	0.00	7.52
19.976	27.15	36.87	0.00	7.52
20.005	27.15	36.87	0.15	7.67
20.035	27.15	36.87	0.15	7.67
20.065	27.05	36.77	0.15	7.67
20.095	27.05	36.77	0.04	7.56
20.124	27.05	36.77	0.04	7.56
20.154	27.05	36.77	0.04	7.56
20.184	27.05	36.77	0.09	7.61
20.214	27.05	36.77	0.09	7.61
20.243	27.01	36.73	0.09	7.61
20.273	27.01	36.73	0.14	7.65
20.303	27.01	36.73	0.14	7.65
20.333	26.95	36.67	0.14	7.65
20.362	26.95	36.67	0.00	7.52
20.392	26.95	36.67	0.00	7.52
20.422	26.95	36.67	0.00	7.52
20.452	26.95	36.67	0.15	7.67
20.481	26.95	36.67	0.15	7.67
20.511	27.05	36.77	0.15	7.67
20.541	27.05	36.77	0.04	7.56
20.571	27.05	36.77	0.04	7.56
20.600	26.95	36.67	0.04	7.56
20.630	26.95	36.67	0.09	7.61
20.660	26.95	36.67	0.09	7.61
20.690	27.05	36.77	0.09	7.61
20.719	27.05	36.77	0.13	7.65
20.749	27.05	36.77	0.13	7.65
20.779	26.95	36.67	0.13	7.65
20.809	26.95	36.67	0.00	7.52
20.839	26.95	36.67	0.00	7.52
20.868	26.99	36.71	0.00	7.52
20.898	26.99	36.71	0.15	7.67
20.928	26.99	36.71	0.15	7.67
20.958	26.88	36.60	0.15	7.67
20.987	26.88	36.60	0.04	7.56
21.017	26.88	36.60	0.04	7.56
21.047	27.01	36.73	0.04	7.56
21.077	27.01	36.73	0.10	7.62
21.106	27.01	36.73	0.10	7.62
21.136	26.96	36.68	0.10	7.62
21.166	26.96	36.68	0.13	7.65
21.196	26.96	36.68	0.13	7.65
21.225	27.04	36.75	0.13	7.65
21.255	27.04	36.75	0.00	7.52
21.285	27.04	36.75	0.00	7.52
21.315	27.09	36.81	0.00	7.52
21.345	27.09	36.81	0.15	7.67
21.374	27.09	36.81	0.15	7.67
21.404	26.94	36.66	0.15	7.67
21.434	26.94	36.66	0.04	7.56
21.464	26.94	36.66	0.04	7.56
21.493	26.93	36.65	0.04	7.56
21.523	26.93	36.65	0.10	7.62
21.553	26.93	36.65	0.10	7.62
21.583	26.99	36.71	0.10	7.62
21.612	26.99	36.71	0.13	7.65
21.642	26.99	36.71	0.13	7.65
21.672	27.12	36.84	0.13	7.65
21.702	27.12	36.84	0.00	7.52
21.731	27.12	36.84	0.00	7.52
21.761	26.94	36.66	0.00	7.52
21.791	26.94	36.66	0.15	7.67
21.821	26.94	36.66	0.15	7.67
21.850	26.95	36.67	0.15	7.67
21.880	26.95	36.67	0.04	7.56
21.910	26.95	36.67	0.04	7.56
21.940	27.00	36.72	0.04	7.56
21.969	27.00	36.72	0.10	7.62
21.999	27.00	36.72	0.10	7.62
22.029	26.90	36.62	0.10	7.62
22.059	26.90	36.62	0.13	7.65
22.089	26.90	36.62	0.13	7.65
22.118	26.99	36.71	0.13	7.65
22.148	26.99	36.71	0.00	7.52
22.178	26.99	36.71	0.00	7.52
22.208	26.83	36.54	0.00	7.52
22.237	26.83	36.54	0.15	7.67
22.267	26.83	36.54	0.15	7.67
22.297	26.72	36.44	0.15	7.67
22.327	26.72	36.44	0.04	7.56
22.356	26.72	36.44	0.04	7.56
22.386	26.88	36.60	0.04	7.56
22.416	26.88	36.60	0.10	7.62
22.446	26.88	36.60	0.10	7.62
22.475	26.89	36.61	0.10	7.62
22.505	26.89	36.61	0.12	7.64
22.535	26.89	36.61	0.12	7.64
22.565	26.85	36.57	0.12	7.64
22.595	26.85	36.57	0.00	7.52
22.624	26.85	36.57	0.00	7.52
22.654	26.76	36.48	0.00	7.52
22.684	26.76	36.48	0.16	7.68
22.714	26.76	36.48	0.16	7.68
22.743	26.62	36.34	0.16	7.68
22.773	26.62	36.34	0.04	7.55
22.803	26.62	36.34	0.04	7.55
22.833	26.81	36.53	0.04	7.55
22.862	26.81	36.53	0.10	7.62
22.892	26.81	36.53	0.10	7.62
22.922	26.59	36.31	0.10	7.62
22.952	26.59	36.31	0.12	7.64
22.981	26.59	36.31	0.12	7.64
23.011	26.85	36.57	0.12	7.64
23.041	26.85	36.57	0.00	7.52
23.071	26.85	36.57	0.00	7.52
23.100	26.80	36.52	0.00	7.52
23.130	26.80	36.52	0.16	7.68
23.160	26.80	36.52	0.16	7.68
23.190	26.60	36.32	0.16	7.68
23.220	26.60	36.32	0.04	7.55
23.249	26.60	36.32	0.04	7.55
23.279	26.72	36.44	0.04	7.55
23.309	26.72	36.44	0.10	7.62
23.339	26.72	36.44	0.10	7.62
23.368	26.91	36.63	0.10	7.62
23.398	26.91	36.63	0.11	7.63
23.428	26.91	36.63	0.11	7.63
23.458	26.84	36.56	0.11	7.63
23.487	26.84	36.56	0.00	7.52
23.517	26.84	36.56	0.00	7.52
23.547	26.76	36.48	0.00	7.52
23.577	26.76	36.48	0.16	7.68
23.606	26.76	36.48	0.16	7.68
23.636	26.59	36.31	0.16	7.68
23.666	26.59	36.31	0.03	7.55
23.696	26.59	36.31	0.03	7.55
23.726	26.46	36.18	0.03	7.55
23.755	26.46	36.18	0.11	7.63
23.785	26.46	36.18	0.11	7.63
23.815	26.36	36.08	0.11	7.63
23.845	26.36	36.08	0.11	7.63
23.874	26.36	36.08	0.11	7.63
23.904	26.40	36.12	0.11	7.63
23.934	26.40	36.12	0.00	7.52
23.964	26.40	36.12	0.00	7.52
23.993	26.43	36.15	0.00	7.52
24.023	26.43	36.15	0.16	7.68
24.053	26.43	36.15	0.16	7.68
24.083	26.41	36.13	0.16	7.68
24.112	26.41	36.13	0.03	7.55
24.142	26.41	36.13	0.03	7.55
24.172	26.31	36.03	0.03	7.55
24.202	26.31	36.03	0.11	7.63
24.231	26.31	36.03	0.11	7.63
24.261	26.24	35.95	0.11	7.63
24.291	26.24	35.95	0.11	7.63
24.321	26.24	35.95	0.11	7.63
24.351	26.36	36.08	0.11	7.63
24.380	26.36	36.08	0.00	7.52
24.410	26.36	36.08	0.00	7.52
24.440	26.45	36.17	0.00	7.52
24.470	26.45	36.17	0.16	7.68
24.499	26.45	36.17	0.16	7.68
24.529	26.31	36.03	0.16	7.68
24.559	26.31	36.03	0.03	7.55
24.589	26.31	36.03	0.03	7.55
24.618	26.38	36.10	0.03	7.55
24.648	26.38	36.10	0.11	7.63
24.678	26.38	36.10	0.11	7.63
24.708	26.31	36.03	0.11	7.63
24.737	26.31	36.03	0.11	7.63
24.767	26.31	36.03	0.11	7.63
24.797	26.35	36.07	0.11	7.63
24.827	26.35	36.07	0.01	7.53
24.856	26.35	36.07	0.01	7.53
24.886	26.30	36.02	0.01	7.53
24.916	26.30	36.02	0.15	7.67
24.946	26.30	36.02	0.15	7.67
24.976	26.15	35.87	0.15	7.67
25.005	26.15	35.87	0.03	7.55
25.035	26.15	35.87	0.03	7.55
25.065	26.07	35.79	0.03	7.55
25.095	26.07	35.79	0.11	7.63
25.124	26.07	35.79	0.11	7.63
25.154	25.80	35.52	0.11	7.63
25.184	25.80	35.52	0.11	7.63
25.214	25.80	35.52	0.11	7.63
25.243	26.09	35.81	0.11	7.63
25.273	26.09	35.81	0.00	7.52
25.303	26.09	35.81	0.00	7.52
25.333	25.97	35.69	0.00	7.52
25.362	25.97	35.69	0.16	7.68
25.392	25.97	35.69	0.16	7.68
25.422	26.04	35.76	0.16	7.68
25.452	26.04	35.76	0.03	7.55
25.482	26.04	35.76	0.03	7.55
25.511	25.99	35.71	0.03	7.55
25.541	25.99	35.71	0.11	7.63
25.571	25.99	35.71	0.11	7.63
25.601	25.91	35.63	0.11	7.63
25.630	25.91	35.63	0.10	7.62
25.660	25.91	35.63	0.10	7.62
25.690	25.78	35.50	0.10	7.62
25.720	25.78	35.50	0.00	7.52
25.749	25.78	35.50	0.00	7.52
25.779	25.89	35.60	0.00	7.52
25.809	25.89	35.60	0.16	7.68
25.839	25.89	35.60	0.16	7.68
25.868	25.74	35.46	0.16	7.68
25.898	25.74	35.46	0.03	7.54
25.928	25.74	35.46	0.03	7.54
25.958	25.55	35.27	0.03	7.54
25.987	25.55	35.27	0.11	7.63
26.017	25.55	35.27	0.11	7.63
26.047	25.61	35.33	0.11	7.63
26.077	25.61	35.33	0.10	7.62
26.107	25.61	35.33	0.10	7.62
26.136	25.50	35.22	0.10	7.62
26.166	25.50	35.22	0.01	7.53
26.196	25.50	35.22	0.01	7.53
26.226	25.65	35.37	0.01	7.53
26.255	25.65	35.37	0.16	7.68
26.285	25.65	35.37	0.16	7.68
26.315	25.56	35.28	0.16	7.68
26.345	25.56	35.28	0.03	7.55
26.374	25.56	35.28	0.03	7.55
26.404	25.73	35.45	0.03	7.55
26.434	25.73	35.45	0.11	7.63
26.464	25.73	35.45	0.11	7.63
26.493	25.73	35.45	0.11	7.63
26.523	25.73	35.45	0.10	7.62
26.553	25.73	35.45	0.10	7.62
26.583	25.68	35.40	0.10	7.62
26.612	25.68	35.40	0.00	7.52
26.642	25.68	35.40	0.00	7.52
26.672	25.73	35.45	0.00	7.52
26.702	25.73	35.45	0.16	7.68
26.732	25.73	35.45	0.16	7.68
26.761	25.77	35.49	0.16	7.68
26.791	25.77	35.49	0.03	7.54
26.821	25.77	35.49	0.03	7.54
26.851	25.82	35.54	0.03	7.54
26.880	25.82	35.54	0.11	7.63
26.910	25.82	35.54	0.11	7.63
26.940	25.76	35.48	0.11	7.63
26.970	25.76	35.48	0.10	7.62
26.999	25.76	35.48	0.10	7.62
27.029	25.84	35.56	0.10	7.62
27.059	25.84	35.56	0.01	7.53
27.089	25.84	35.56	0.01	7.53
27.118	25.74	35.46	0.01	7.53
27.148	25.74	35.46	0.16	7.68
27.178	25.74	35.46	0.16	7.68
27.208	25.84	35.56	0.16	7.68
27.237	25.84	35.56	0.03	7.55
27.267	25.84	35.56	0.03	7.55
27.297	25.84	35.56	0.03	7.55
27.327	25.84	35.56	0.11	7.63
27.357	25.84	35.56	0.11	7.63
27.386	25.90	35.62	0.11	7.63
27.416	25.90	35.62	0.10	7.62
27.446	25.90	35.62	0.10	7.62
27.476	25.85	35.57	0.10	7.62
27.505	25.85	35.57	0.01	7.53
27.535	25.85	35.57	0.01	7.53
27.565	25.74	35.46	0.01	7.53
27.595	25.74	35.46	0.16	7.68
27.624	25.74	35.46	0.16	7.68
27.654	25.75	35.47	0.16	7.68
27.684	25.75	35.47	0.02	7.54
27.714	25.75	35.47	0.02	7.54
27.743	25.67	35.39	0.02	7.54
27.773	25.67	35.39	0.11	7.63
27.803	25.67	35.39	0.11	7.63
27.833	25.67	35.39	0.11	7.63
27.862	25.67	35.39	0.09	7.61
27.892	25.67	35.39	0.09	7.61
27.922	25.76	35.48	0.09	7.61
27.952	25.76	35.48	0.01	7.53
27.982	25.76	35.48	0.01	7.53
28.011	25.65	35.37	0.01	7.53
28.041	25.65	35.37	0.16	7.68
28.071	25.65	35.37	0.16	7.68
28.101	25.72	35.44	0.16	7.68
28.130	25.72	35.44	0.02	7.54
28.160	25.72	35.44	0.02	7.54
28.190	25.67	35.39	0.02	7.54
28.220	25.67	35.39	0.11	7.63
28.249	25.67	35.39	0.11	7.63
28.279	25.73	35.45	0.11	7.63
28.309	25.73	35.45	0.09	7.61
28.339	25.73	35.45	0.09	7.61
28.368	25.68	35.39	0.09	7.61
28.398	25.68	35.39	0.01	7.53
28.428	25.68	35.39	0.01	7.53
28.458	25.75	35.47	0.01	7.53
28.488	25.75	35.47	0.16	7.68
28.517	25.75	35.47	0.16	7.68
28.547	25.57	35.29	0.16	7.68
28.577	25.57	35.29	0.02	7.54
28.607	25.57	35.29	0.02	7.54
28.636	25.47	35.19	0.02	7.54
28.666	25.47	35.19	0.11	7.63
28.696	25.47	35.19	0.11	7.63
28.726	25.55	35.27	0.11	7.63
28.755	25.55	35.27	0.09	7.61
28.785	25.55	35.27	0.09	7.61
28.815	25.70	35.42	0.09	7.61
28.845	25.70	35.42	0.01	7.53
28.874	25.70	35.42	0.01	7.53
28.904	25.66	35.38	0.01	7.53
28.934	25.66	35.38	0.16	7.68
28.964	25.66	35.38	0.16	7.68
28.993	25.47	35.19	0.16	7.68
29.023	25.47	35.19	0.02	7.54
29.053	25.47	35.19	0.02	7.54
29.083	25.56	35.28	0.02	7.54
29.112	25.56	35.28	0.11	7.63
29.142	25.56	35.28	0.11	7.63
29.172	25.71	35.43	0.11	7.63
29.202	25.71	35.43	0.09	7.61
29.232	25.71	35.43	0.09	7.61
29.261	25.77	35.49	0.09	7.61
29.291	25.77	35.49	0.01	7.53
29.321	25.77	35.49	0.01	7.53
29.351	25.73	35.44	0.01	7.53
29.380	25.73	35.44	0.16	7.68
29.410	25.73	35.44	0.16	7.68
29.440	25.72	35.44	0.16	7.68
29.470	25.72	35.44	0.02	7.54
29.499	25.72	35.44	0.02	7.54
29.529	25.62	35.34	0.02	7.54
29.559	25.62	35.34	0.11	7.63
29.589	25.62	35.34	0.11	7.63
29.618	25.63	35.35	0.11	7.63
29.648	25.63	35.35	0.09	7.61
29.678	25.63	35.35	0.09	7.61
29.708	25.63	35.35	0.09	7.61
29.737	25.63	35.35	0.01	7.53
29.767	25.63	35.35	0.01	7.53
29.797	25.65	35.37	0.01	7.53
29.827	25.65	35.37	0.16	7.68
29.857	25.65	35.37	0.16	7.68
29.886	25.59	35.31	0.16	7.68
29.916	25.59	35.31	0.02	7.54
29.946	25.59	35.31	0.02	7.54
29.976	25.83	35.55	0.02	7.54
30.005	25.83	35.55	0.11	7.63
30.035	25.83	35.55	0.11	7.63
30.065	25.73	35.45	0.11	7.63
30.095	25.73	35.45	0.08	7.60
30.124	25.73	35.45	0.08	7.60
30.154	25.67	35.39	0.08	7.60
30.184	25.67	35.39	0.01	7.53
30.214	25.67	35.39	0.01	7.53
30.243	25.65	35.37	0.01	7.53
30.273	25.65	35.37	0.17	7.69
30.303	25.65	35.37	0.17	7.69
30.333	25.58	35.30	0.17	7.69
30.362	25.58	35.30	0.02	7.54
30.392	25.58	35.30	0.02	7.54
30.422	25.54	35.26	0.02	7.54
30.452	25.54	35.26	0.11	7.63
30.482	25.54	35.26	0.11	7.63
30.511	25.55	35.27	0.11	7.63
30.541	25.55	35.27	0.08	7.60
30.571	25.55	35.27	0.08	7.60
30.601	25.52	35.24	0.08	7.60
30.630	25.52	35.24	0.02	7.54
30.660	25.52	35.24	0.02	7.54
30.690	25.43	35.15	0.02	7.54
30.720	25.43	35.15	0.16	7.68
30.749	25.43	35.15	0.16	7.68
30.779	25.46	35.18	0.16	7.68
30.809	25.46	35.18	0.02	7.54
30.839	25.46	35.18	0.02	7.54
30.868	25.41	35.13	0.02	7.54
30.898	25.41	35.13	0.12	7.64
30.928	25.41	35.13	0.12	7.64
30.958	25.45	35.17	0.12	7.64
30.987	25.45	35.17	0.08	7.60
31.017	25.45	35.17	0.08	7.60
31.047	25.27	34.99	0.08	7.60
31.077	25.27	34.99	0.02	7.54
31.107	25.27	34.99	0.02	7.54
31.136	25.39	35.10	0.02	7.54
31.166	25.39	35.10	0.17	7.69
31.196	25.39	35.10	0.17	7.69
31.226	25.26	34.98	0.17	7.69
31.255	25.26	34.98	0.02	7.54
31.285	25.26	34.98	0.02	7.54
31.315	25.22	34.94	0.02	7.54
31.345	25.22	34.94	0.11	7.63
31.374	25.22	34.94	0.11	7.63
31.404	25.21	34.93	0.11	7.63
31.434	25.21	34.93	0.08	7.60
31.464	25.21	34.93	0.08	7.60
31.493	25.36	35.08	0.08	7.60
31.523	25.36	35.08	0.02	7.54
31.553	25.36	35.08	0.02	7.54
31.583	25.27	34.99	0.02	7.54
31.613	25.27	34.99	0.16	7.68
31.642	25.27	34.99	0.16	7.68
31.672	25.21	34.93	0.16	7.68
31.702	25.21	34.93	0.01	7.53
31.732	25.21	34.93	0.01	7.53
31.761	25.19	34.90	0.01	7.53
31.791	25.19	34.90	0.12	7.64
31.821	25.19	34.90	0.12	7.64
31.851	25.35	35.07	0.12	7.64
31.880	25.35	35.07	0.08	7.59
31.910	25.35	35.07	0.08	7.59
31.940	25.15	34.87	0.08	7.59
31.970	25.15	34.87	0.02	7.54
31.999	25.15	34.87	0.02	7.54
32.029	25.23	34.95	0.02	7.54
32.059	25.23	34.95	0.16	7.68
32.089	25.23	34.95	0.16	7.68
32.118	25.21	34.93	0.16	7.68
32.148	25.21	34.93	0.02	7.54
32.178	25.21	34.93	0.02	7.54
32.208	25.50	35.22	0.02	7.54
32.237	25.50	35.22	0.12	7.64
32.267	25.50	35.22	0.12	7.64
32.297	25.32	35.04	0.12	7.64
32.327	25.32	35.04	0.07	7.59
32.357	25.32	35.04	0.07	7.59
32.386	25.19	34.90	0.07	7.59
32.416	25.19	34.90	0.02	7.54
32.446	25.19	34.90	0.02	7.54
32.476	25.42	35.14	0.02	7.54
32.505	25.42	35.14	0.16	7.68
32.535	25.42	35.14	0.16	7.68
32.565	25.26	34.98	0.16	7.68
32.595	25.26	34.98	0.01	7.53
32.624	25.26	34.98	0.01	7.53
32.654	25.27	34.99	0.01	7.53
32.684	25.27	34.99	0.12	7.64
32.714	25.27	34.99	0.12	7.64
32.743	25.39	35.11	0.12	7.64
32.773	25.39	35.11	0.08	7.59
32.803	25.39	35.11	0.08	7.59
32.833	25.01	34.73	0.08	7.59
32.862	25.01	34.73	0.02	7.54
32.892	25.01	34.73	0.02	7.54
32.922	25.15	34.87	0.02	7.54
32.952	25.15	34.87	0.16	7.68
32.982	25.15	34.87	0.16	7.68
33.011	25.17	34.89	0.16	7.68
33.041	25.17	34.89	0.02	7.54
33.071	25.17	34.89	0.02	7.54
33.101	25.11	34.83	0.02	7.54
33.130	25.11	34.83	0.11	7.63
33.160	25.11	34.83	0.11	7.63
33.190	24.98	34.70	0.11	7.63
33.220	24.98	34.70	0.08	7.59
33.249	24.98	34.70	0.08	7.59
33.279	24.92	34.64	0.08	7.59
33.309	24.92	34.64	0.02	7.54
33.339	24.92	34.64	0.02	7.54
33.368	24.98	34.70	0.02	7.54
33.398	24.98	34.70	0.16	7.68
33.428	24.98	34.70	0.16	7.68
33.458	25.18	34.90	0.16	7.68
33.487	25.18	34.90	0.01	7.53
33.517	25.18	34.90	0.01	7.53
33.547	25.21	34.93	0.01	7.53
33.577	25.21	34.93	0.12	7.64
33.607	25.21	34.93	0.12	7.64
33.636	25.35	35.07	0.12	7.64
33.666	25.35	35.07	0.07	7.59
33.696	25.35	35.07	0.07	7.59
33.726	25.15	34.87	0.07	7.59
33.755	25.15	34.87	0.02	7.54
33.785	25.15	34.87	0.02	7.54
33.815	25.17	34.89	0.02	7.54
33.845	25.17	34.89	0.16	7.68
33.874	25.17	34.89	0.16	7.68
33.904	25.22	34.94	0.16	7.68
33.934	25.22	34.94	0.02	7.54
33.964	25.22	34.94	0.02	7.54
33.993	25.13	34.85	0.02	7.54
34.023	25.13	34.85	0.11	7.63
34.053	25.13	34.85	0.11	7.63
34.083	25.11	34.83	0.11	7.63
34.112	25.11	34.83	0.08	7.60
34.142	25.11	34.83	0.08	7.60
34.172	25.14	34.86	0.08	7.60
34.202	25.14	34.86	0.02	7.54
34.232	25.14	34.86	0.02	7.54
34.261	25.21	34.93	0.02	7.54
34.291	25.21	34.93	0.16	7.68
34.321	25.21	34.93	0.16	7.68
34.351	25.11	34.83	0.16	7.68
34.380	25.11	34.83	0.02	7.54
34.410	25.11	34.83	0.02	7.54
34.440	25.12	34.84	0.02	7.54
34.470	25.12	34.84	0.11	7.63
34.499	25.12	34.84	0.11	7.63
34.529	25.12	34.84	0.11	7.63
34.559	25.12	34.84	0.08	7.60
34.589	25.12	34.84	0.08	7.60
34.618	25.06	34.78	0.08	7.60
34.648	25.06	34.78	0.02	7.54
34.678	25.06	34.78	0.02	7.54
34.708	25.26	34.98	0.02	7.54
34.737	25.26	34.98	0.16	7.68
34.767	25.26	34.98	0.16	7.68
34.797	25.15	34.87	0.16	7.68
34.827	25.15	34.87	0.02	7.54
34.857	25.15	34.87	0.02	7.54
34.886	25.30	35.02	0.02	7.54
34.916	25.30	35.02	0.12	7.64
34.946	25.30	35.02	0.12	7.64
34.976	25.25	34.97	0.12	7.64
35.005	25.25	34.97	0.08	7.60
35.035	25.25	34.97	0.08	7.60
35.065	25.13	34.85	0.08	7.60
35.095	25.13	34.85	0.02	7.54
35.124	25.13	34.85	0.02	7.54
35.154	25.39	35.11	0.02	7.54
35.184	25.39	35.11	0.16	7.68
35.214	25.39	35.11	0.16	7.68
35.243	25.27	34.99	0.16	7.68
35.273	25.27	34.99	0.02	7.54
35.303	25.27	34.99	0.02	7.54
35.333	25.29	35.01	0.02	7.54
35.363	25.29	35.01	0.12	7.64
35.392	25.29	35.01	0.12	7.64
35.422	25.48	35.19	0.12	7.64
35.452	25.48	35.19	0.08	7.60
35.482	25.48	35.19	0.08	7.60
35.511	25.43	35.15	0.08	7.60
35.541	25.43	35.15	0.02	7.54
35.571	25.43	35.15	0.02	7.54
35.601	25.42	35.14	0.02	7.54
35.630	25.42	35.14	0.16	7.68
35.660	25.42	35.14	0.16	7.68
35.690	25.48	35.20	0.16	7.68
35.720	25.48	35.20	0.02	7.54
35.749	25.48	35.20	0.02	7.54
35.779	25.38	35.10	0.02	7.54
35.809	25.38	35.10	0.12	7.64
35.839	25.38	35.10	0.12	7.64
35.868	25.44	35.15	0.12	7.64
35.898	25.44	35.15	0.08	7.60
35.928	25.44	35.15	0.08	7.60
35.958	25.35	35.07	0.08	7.60
35.988	25.35	35.07	0.01	7.53
36.017	25.35	35.07	0.01	7.53
36.047	25.30	35.02	0.01	7.53
36.077	25.30	35.02	0.16	7.68
36.107	25.30	35.02	0.16	7.68
36.136	25.33	35.05	0.16	7.68
36.166	25.33	35.05	0.02	7.54
36.196	25.33	35.05	0.02	7.54
36.226	25.35	35.07	0.02	7.54
36.255	25.35	35.07	0.11	7.63
36.285	25.35	35.07	0.11	7.63
36.315	25.32	35.04	0.11	7.63
36.345	25.32	35.04	0.08	7.60
36.374	25.32	35.04	0.08	7.60
36.404	25.22	34.94	0.08	7.60
36.434	25.22	34.94	0.01	7.53
36.464	25.22	34.94	0.01	7.53
36.494	25.48	35.20	0.01	7.53
36.523	25.48	35.20	0.16	7.68
36.553	25.48	35.20	0.16	7.68
36.583	25.44	35.16	0.16	7.68
36.613	25.44	35.16	0.02	7.54
36.642	25.44	35.16	0.02	7.54
36.672	25.52	35.24	0.02	7.54
36.702	25.52	35.24	0.12	7.64
36.732	25.52	35.24	0.12	7.64
36.761	25.52	35.24	0.12	7.64
36.791	25.52	35.24	0.08	7.60
36.821	25.52	35.24	0.08	7.60
36.851	25.40	35.12	0.08	7.60
36.880	25.40	35.12	0.01	7.53
36.910	25.40	35.12	0.01	7.53
36.940	25.38	35.10	0.01	7.53
36.970	25.38	35.10	0.16	7.68
36.999	25.38	35.10	0.16	7.68
37.029	25.39	35.11	0.16	7.68
37.059	25.39	35.11	0.02	7.54
37.089	25.39	35.11	0.02	7.54
37.119	25.36	35.08	0.02	7.54
37.148	25.36	35.08	0.11	7.63
37.178	25.36	35.08	0.11	7.63
37.208	25.50	35.22	0.11	7.63
37.238	25.50	35.22	0.09	7.61
37.267	25.50	35.22	0.09	7.61
37.297	25.37	35.09	0.09	7.61
37.327	25.37	35.09	0.01	7.53
37.357	25.37	35.09	0.01	7.53
37.386	25.41	35.13	0.01	7.53
37.416	25.41	35.13	0.16	7.68
37.446	25.41	35.13	0.16	7.68
37.476	25.57	35.29	0.16	7.68
37.505	25.57	35.29	0.02	7.54
37.535	25.57	35.29	0.02	7.54
37.565	25.42	35.14	0.02	7.54
37.595	25.42	35.14	0.11	7.63
37.624	25.42	35.14	0.11	7.63
37.654	25.54	35.25	0.11	7.63
37.684	25.54	35.25	0.09	7.61
37.714	25.54	35.25	0.09	7.61
37.744	25.46	35.18	0.09	7.61
37.773	25.46	35.18	0.01	7.53
37.803	25.46	35.18	0.01	7.53
37.833	25.78	35.50	0.01	7.53
37.863	25.78	35.50	0.16	7.68
37.892	25.78	35.50	0.16	7.68
37.922	25.46	35.18	0.16	7.68
37.952	25.46	35.18	0.03	7.54
37.982	25.46	35.18	0.03	7.54
38.011	25.58	35.30	0.03	7.54
38.041	25.58	35.30	0.11	7.63
38.071	25.58	35.30	0.11	7.63
38.101	25.54	35.26	0.11	7.63
38.130	25.54	35.26	0.10	7.62
38.160	25.54	35.26	0.10	7.62
38.190	25.54	35.26	0.10	7.62
38.220	25.54	35.26	0.01	7.53
38.250	25.54	35.26	0.01	7.53
38.279	25.49	35.21	0.01	7.53
38.309	25.49	35.21	0.16	7.68
38.339	25.49	35.21	0.16	7.68
38.369	25.54	35.25	0.16	7.68
38.398	25.54	35.25	0.03	7.55
38.428	25.54	35.25	0.03	7.55
38.458	25.59	35.31	0.03	7.55
38.488	25.59	35.31	0.11	7.63
38.517	25.59	35.31	0.11	7.63
38.547	25.60	35.32	0.11	7.63
38.577	25.60	35.32	0.10	7.62
38.607	25.60	35.32	0.10	7.62
38.636	25.54	35.26	0.10	7.62
38.666	25.54	35.26	0.01	7.53
38.696	25.54	35.26	0.01	7.53
38.726	25.71	35.43	0.01	7.53
38.755	25.71	35.43	0.16	7.68
38.785	25.71	35.43	0.16	7.68
38.815	25.65	35.37	0.16	7.68
38.845	25.65	35.37	0.03	7.55
38.875	25.65	35.37	0.03	7.55
38.904	25.50	35.22	0.03	7.55
38.934	25.50	35.22	0.11	7.63
38.964	25.50	35.22	0.11	7.63
38.994	25.62	35.34	0.11	7.63
39.023	25.62	35.34	0.10	7.62
39.053	25.62	35.34	0.10	7.62
39.083	25.56	35.28	0.10	7.62
39.113	25.56	35.28	0.00	7.52
39.142	25.56	35.28	0.00	7.52
39.172	25.61	35.33	0.00	7.52
39.202	25.61	35.33	0.16	7.68
39.232	25.61	35.33	0.16	7.68
39.261	25.61	35.33	0.16	7.68
39.291	25.61	35.33	0.03	7.55
39.321	25.61	35.33	0.03	7.55
39.351	25.60	35.32	0.03	7.55
39.381	25.60	35.32	0.10	7.62
39.410	25.60	35.32	0.10	7.62
39.440	25.73	35.45	0.10	7.62
39.470	25.73	35.45	0.10	7.62
39.500	25.73	35.45	0.10	7.62
39.529	25.71	35.43	0.10	7.62
39.559	25.71	35.43	0.01	7.53
39.589	25.71	35.43	0.01	7.53
39.619	25.83	35.55	0.01	7.53
39.648	25.83	35.55	0.16	7.68
39.678	25.83	35.55	0.16	7.68
39.708	25.66	35.38	0.16	7.68
39.738	25.66	35.38	0.03	7.55
39.767	25.66	35.38	0.03	7.55
39.797	25.81	35.53	0.03	7.55
39.827	25.81	35.53	0.11	7.63
39.857	25.81	35.53	0.11	7.63
39.887	25.71	35.43	0.11	7.63
39.916	25.71	35.43	0.11	7.63
39.946	25.71	35.43	0.11	7.63
39.976	25.66	35.38	0.11	7.63
40.006	25.66	35.38	0.00	7.52
40.035	25.66	35.38	0.00	7.52
40.065	25.89	35.61	0.00	7.52
40.095	25.89	35.61	0.16	7.68
40.125	25.89	35.61	0.16	7.68
40.154	25.84	35.56	0.16	7.68
40.184	25.84	35.56	0.03	7.55
40.214	25.84	35.56	0.03	7.55
40.244	25.86	35.58	0.03	7.55
40.273	25.86	35.58	0.11	7.63
40.303	25.86	35.58	0.11	7.63
40.333	25.86	35.58	0.11	7.63
40.363	25.86	35.58	0.11	7.63
40.393	25.86	35.58	0.11	7.63
40.422	25.92	35.64	0.11	7.63
40.452	25.92	35.64	0.00	7.52
40.482	25.92	35.64	0.00	7.52
40.512	26.04	35.75	0.00	7.52
40.541	26.04	35.75	0.16	7.68
40.571	26.04	35.75	0.16	7.68
40.601	25.84	35.56	0.16	7.68
40.631	25.84	35.56	0.03	7.55
40.660	25.84	35.56	0.03	7.55
40.690	25.90	35.62	0.03	7.55
40.720	25.90	35.62	0.10	7.62
40.750	25.90	35.62	0.10	7.62
40.779	25.94	35.66	0.10	7.62
40.809	25.94	35.66	0.11	7.63
40.839	25.94	35.66	0.11	7.63
40.869	26.02	35.74	0.11	7.63
40.898	26.02	35.74	0.00	7.52
40.928	26.02	35.74	0.00	7.52
40.958	26.13	35.85	0.00	7.52
40.988	26.13	35.85	0.16	7.68
41.017	26.13	35.85	0.16	7.68
41.047	26.04	35.76	0.16	7.68
41.077	26.04	35.76	0.03	7.55
41.107	26.04	35.76	0.03	7.55
41.137	26.00	35.72	0.03	7.55
41.166	26.00	35.72	0.11	7.63
41.196	26.00	35.72	0.11	7.63
41.226	25.94	35.66	0.11	7.63
41.256	25.94	35.66	0.11	7.63
41.285	25.94	35.66	0.11	7.63
41.315	25.84	35.56	0.11	7.63
41.345	25.84	35.56	0.00	7.52
41.375	25.84	35.56	0.00	7.52
41.404	25.91	35.63	0.00	7.52
41.434	25.91	35.63	0.15	7.67
41.464	25.91	35.63	0.15	7.67
41.494	25.80	35.52	0.15	7.67
41.523	25.80	35.52	0.03	7.55
41.553	25.80	35.52	0.03	7.55
41.583	25.74	35.45	0.03	7.55
41.613	25.74	35.45	0.10	7.62
41.642	25.74	35.45	0.10	7.62
41.672	25.73	35.45	0.10	7.62
41.702	25.73	35.45	0.11	7.63
41.732	25.73	35.45	0.11	7.63
41.761	25.74	35.46	0.11	7.63
41.791	25.74	35.46	0.00	7.52
41.821	25.74	35.46	0.00	7.52
41.851	26.02	35.74	0.00	7.52
41.880	26.02	35.74	0.16	7.68
41.910	26.02	35.74	0.16	7.68
41.940	26.07	35.79	0.16	7.68
41.970	26.07	35.79	0.03	7.55
41.999	26.07	35.79	0.03	7.55
42.029	25.91	35.63	0.03	7.55
42.059	25.91	35.63	0.10	7.62
42.089	25.91	35.63	0.10	7.62
42.119	26.04	35.76	0.10	7.62
42.148	26.04	35.76	0.12	7.64
42.178	26.04	35.76	0.12	7.64
42.208	26.15	35.87	0.12	7.64
42.238	26.15	35.87	0.00	7.52
42.267	26.15	35.87	0.00	7.52
42.297	26.23	35.95	0.00	7.52
42.327	26.23	35.95	0.16	7.68
42.357	26.23	35.95	0.16	7.68
42.386	26.15	35.87	0.16	7.68
42.416	26.15	35.87	0.04	7.55
42.446	26.15	35.87	0.04	7.55
42.476	26.20	35.92	0.04	7.55
42.505	26.20	35.92	0.10	7.62
42.535	26.20	35.92	0.10	7.62
42.565	26.22	35.94	0.10	7.62
42.595	26.22	35.94	0.12	7.64
42.625	26.22	35.94	0.12	7.64
42.654	26.19	35.91	0.12	7.64
42.684	26.19	35.91	0.01	7.53
42.714	26.19	35.91	0.01	7.53
42.744	26.09	35.81	0.01	7.53
42.773	26.09	35.81	0.15	7.67
42.803	26.09	35.81	0.15	7.67
42.833	26.25	35.97	0.15	7.67
42.863	26.25	35.97	0.04	7.56
42.892	26.25	35.97	0.04	7.56
42.922	26.18	35.90	0.04	7.56
42.952	26.18	35.90	0.10	7.62
42.982	26.18	35.90	0.10	7.62
43.011	26.10	35.82	0.10	7.62
43.041	26.10	35.82	0.12	7.64
43.071	26.10	35.82	0.12	7.64
43.101	26.02	35.74	0.12	7.64
43.130	26.02	35.74	0.01	7.53
43.160	26.02	35.74	0.01	7.53
43.190	26.24	35.96	0.01	7.53
43.220	26.24	35.96	0.15	7.67
43.250	26.24	35.96	0.15	7.67
43.279	26.14	35.86	0.15	7.67
43.309	26.14	35.86	0.04	7.56
43.339	26.14	35.86	0.04	7.56
43.369	26.06	35.78	0.04	7.56
43.398	26.06	35.78	0.10	7.62
43.428	26.06	35.78	0.10	7.62
43.458	26.12	35.84	0.10	7.62
43.488	26.12	35.84	0.12	7.64
43.517	26.12	35.84	0.12	7.64
43.547	26.16	35.88	0.12	7.64
43.577	26.16	35.88	0.01	7.53
43.607	26.16	35.88	0.01	7.53
43.636	26.10	35.82	0.01	7.53
43.666	26.10	35.82	0.16	7.68
43.696	26.10	35.82	0.16	7.68
43.726	26.15	35.87	0.16	7.68
43.756	26.15	35.87	0.04	7.56
43.785	26.15	35.87	0.04	7.56
43.815	26.23	35.95	0.04	7.56
43.845	26.23	35.95	0.10	7.62
43.875	26.23	35.95	0.10	7.62
43.904	26.15	35.87	0.10	7.62
43.934	26.15	35.87	0.13	7.65
43.964	26.15	35.87	0.13	7.65
43.994	26.08	35.80	0.13	7.65
44.023	26.08	35.80	0.00	7.52
44.053	26.08	35.80	0.00	7.52
44.083	26.27	35.99	0.00	7.52
44.113	26.27	35.99	0.15	7.67
44.142	26.27	35.99	0.15	7.67
44.172	26.18	35.90	0.15	7.67
44.202	26.18	35.90	0.04	7.56
44.232	26.18	35.90	0.04	7.56
44.262	26.31	36.03	0.04	7.56
44.291	26.31	36.03	0.10	7.62
44.321	26.31	36.03	0.10	7.62
44.351	26.27	35.99	0.10	7.62
44.381	26.27	35.99	0.13	7.65
44.410	26.27	35.99	0.13	7.65
44.440	26.40	36.12	0.13	7.65
44.470	26.40	36.12	0.00	7.52
44.500	26.40	36.12	0.00	7.52
44.529	26.28	36.00	0.00	7.52
44.559	26.28	36.00	0.16	7.68
44.589	26.28	36.00	0.16	7.68
44.619	26.29	36.01	0.16	7.68
44.648	26.29	36.01	0.04	7.56
44.678	26.29	36.01	0.04	7.56
44.708	26.26	35.98	0.04	7.56
44.738	26.26	35.98	0.10	7.62
44.767	26.26	35.98	0.10	7.62
44.797	26.31	36.03	0.10	7.62
44.827	26.31	36.03	0.13	7.65
44.857	26.31	36.03	0.13	7.65
44.887	26.25	35.97	0.13	7.65
44.916	26.25	35.97	0.00	7.52
44.946	26.25	35.97	0.00	7.52
44.976	26.46	36.18	0.00	7.52
45.006	26.46	36.18	0.15	7.67
45.035	26.46	36.18	0.15	7.67
45.065	26.37	36.09	0.15	7.67
45.095	26.37	36.09	0.04	7.56
45.125	26.37	36.09	0.04	7.56
45.154	26.31	36.03	0.04	7.56
45.184	26.31	36.03	0.10	7.62
45.214	26.31	36.03	0.10	7.62
45.244	26.34	36.06	0.10	7.62
45.273	26.34	36.06	0.13	7.65
45.303	26.34	36.06	0.13	7.65
45.333	26.44	36.16	0.13	7.65
45.363	26.44	36.16	0.00	7.52
45.393	26.44	36.16	0.00	7.52
45.422	26.43	36.15	0.00	7.52
45.452	26.43	36.15	0.15	7.67
45.482	26.43	36.15	0.15	7.67
45.512	26.66	36.38	0.15	7.67
45.541	26.66	36.38	0.04	7.56
45.571	26.66	36.38	0.04	7.56
45.601	26.41	36.13	0.04	7.56
45.631	26.41	36.13	0.10	7.62
45.660	26.41	36.13	0.10	7.62
45.690	26.33	36.05	0.10	7.62
45.720	26.33	36.05	0.13	7.65
45.750	26.33	36.05	0.13	7.65
45.779	26.39	36.11	0.13	7.65
45.809	26.39	36.11	0.00	7.52
45.839	26.39	36.11	0.00	7.52
45.869	26.51	36.23	0.00	7.52
45.898	26.51	36.23	0.15	7.67
45.928	26.51	36.23	0.15	7.67
45.958	26.42	36.14	0.15	7.67
45.988	26.42	36.14	0.04	7.56
46.018	26.42	36.14	0.04	7.56
46.047	26.40	36.12	0.04	7.56
46.077	26.40	36.12	0.10	7.62
46.107	26.40	36.12	0.10	7.62
46.137	26.41	36.13	0.10	7.62
46.166	26.41	36.13	0.13	7.65
46.196	26.41	36.13	0.13	7.65
46.226	26.47	36.19	0.13	7.65
46.256	26.47	36.19	0.00	7.52
46.285	26.47	36.19	0.00	7.52
46.315	26.41	36.13	0.00	7.52
46.345	26.41	36.13	0.15	7.67
46.375	26.41	36.13	0.15	7.67
46.404	26.62	36.34	0.15	7.67
46.434	26.62	36.34	0.04	7.56
46.464	26.62	36.34	0.04	7.56
46.494	26.62	36.34	0.04	7.56
46.524	26.62	36.34	0.10	7.62
46.553	26.62	36.34	0.10	7.62
46.583	26.48	36.19	0.10	7.62
46.613	26.48	36.19	0.13	7.65
46.643	26.48	36.19	0.13	7.65
46.672	26.52	36.24	0.13	7.65
46.702	26.52	36.24	0.00	7.52
46.732	26.52	36.24	0.00	7.52
46.762	26.59	36.31	0.00	7.52
46.791	26.59	36.31	0.15	7.67
46.821	26.59	36.31	0.15	7.67
46.851	26.55	36.27	0.15	7.67
46.881	26.55	36.27	0.04	7.56
46.910	26.55	36.27	0.04	7.56
46.940	26.48	36.20	0.04	7.56
46.970	26.48	36.20	0.09	7.61
47.000	26.48	36.20	0.09	7.61
47.030	26.47	36.19	0.09	7.61
47.059	26.47	36.19	0.14	7.65
47.089	26.47	36.19	0.14	7.65
47.119	26.63	36.35	0.14	7.65
47.149	26.63	36.35	0.00	7.52
47.178	26.63	36.35	0.00	7.52
47.208	26.37	36.09	0.00	7.52
47.238	26.37	36.09	0.15	7.67
47.268	26.37	36.09	0.15	7.67
47.297	26.53	36.25	0.15	7.67
47.327	26.53	36.25	0.04	7.56
47.357	26.53	36.25	0.04	7.56
47.387	26.61	36.33	0.04	7.56
47.416	26.61	36.33	0.10	7.62
47.446	26.61	36.33	0.10	7.62
47.476	26.68	36.39	0.10	7.62
47.506	26.68	36.39	0.13	7.65
47.535	26.68	36.39	0.13	7.65
47.565	26.69	36.41	0.13	7.65
47.595	26.69	36.41	0.00	7.52
47.625	26.69	36.41	0.00	7.52
47.654	26.77	36.49	0.00	7.52
47.684	26.77	36.49	0.15	7.67
47.714	26.77	36.49	0.15	7.67
47.744	26.69	36.41	0.15	7.67
47.773	26.69	36.41	0.04	7.56
47.803	26.69	36.41	0.04	7.56
47.833	26.79	36.51	0.04	7.56
47.863	26.79	36.51	0.10	7.62
47.893	26.79	36.51	0.10	7.62
47.922	26.88	36.60	0.10	7.62
47.952	26.88	36.60	0.13	7.65
47.982	26.88	36.60	0.13	7.65
48.012	26.80	36.52	0.13	7.65
48.041	26.80	36.52	0.00	7.52
48.071	26.80	36.52	0.00	7.52
48.101	26.72	36.44	0.00	7.52
48.131	26.72	36.44	0.15	7.67
48.160	26.72	36.44	0.15	7.67
48.190	26.71	36.43	0.15	7.67
48.220	26.71	36.43	0.04	7.56
48.250	26.71	36.43	0.04	7.56
48.279	26.80	36.52	0.04	7.56
48.309	26.80	36.52	0.10	7.62
48.339	26.80	36.52	0.10	7.62
48.369	26.74	36.46	0.10	7.62
48.399	26.74	36.46	0.13	7.65
48.428	26.74	36.46	0.13	7.65
48.458	26.71	36.43	0.13	7.65
48.488	26.71	36.43	0.00	7.52
48.518	26.71	36.43	0.00	7.52
48.547	26.86	36.58	0.00	7.52
48.577	26.86	36.58	0.15	7.67
48.607	26.86	36.58	0.15	7.67
48.637	26.85	36.57	0.15	7.67
48.666	26.85	36.57	0.04	7.56
48.696	26.85	36.57	0.04	7.56
48.726	26.90	36.62	0.04	7.56
48.756	26.90	36.62	0.10	7.62
48.785	26.90	36.62	0.10	7.62
48.815	27.03	36.75	0.10	7.62
48.845	27.03	36.75	0.13	7.65
48.875	27.03	36.75	0.13	7.65
48.904	27.07	36.79	0.13	7.65
48.934	27.07	36.79	0.00	7.52
48.964	27.07	36.79	0.00	7.52
48.994	26.78	36.50	0.00	7.52
49.024	26.78	36.50	0.16	7.68
49.053	26.78	36.50	0.16	7.68
49.083	26.87	36.59	0.16	7.68
49.113	26.87	36.59	0.04	7.55
49.143	26.87	36.59	0.04	7.55
49.172	26.90	36.62	0.04	7.55
49.202	26.90	36.62	0.10	7.62
49.232	26.90	36.62	0.10	7.62
49.262	26.88	36.60	0.10	7.62
49.291	26.88	36.60	0.13	7.64
49.321	26.88	36.60	0.13	7.64
49.351	26.71	36.43	0.13	7.64
49.381	26.71	36.43	0.00	7.52
49.410	26.71	36.43	0.00	7.52
49.440	26.65	36.37	0.00	7.52
49.470	26.65	36.37	0.16	7.68
49.500	26.65	36.37	0.16	7.68
49.530	26.62	36.34	0.16	7.68
49.559	26.62	36.34	0.04	7.55
49.589	26.62	36.34	0.04	7.55
49.619	26.45	36.17	0.04	7.55
49.649	26.45	36.17	0.10	7.62
49.678	26.45	36.17	0.10	7.62
49.708	26.54	36.25	0.10	7.62
49.738	26.54	36.25	0.13	7.64
49.768	26.54	36.25	0.13	7.64
49.797	26.46	36.18	0.13	7.64
49.827	26.46	36.18	0.01	7.53
49.857	26.46	36.18	0.01	7.53
49.887	26.45	36.17	0.01	7.53
49.916	26.45	36.17	0.15	7.67
49.946	26.45	36.17	0.15	7.67
49.976	26.32	36.04	0.15	7.67
50.006	26.32	36.04	0.04	7.55
50.035	26.32	36.04	0.04	7.55
50.065	26.39	36.10	0.04	7.55
50.095	26.39	36.10	0.10	7.62
50.125	26.39	36.10	0.10	7.62
50.155	26.07	35.79	0.10	7.62
50.184	26.07	35.79	0.12	7.64
50.214	26.07	35.79	0.12	7.64
50.244	26.18	35.89	0.12	7.64
50.274	26.18	35.89	0.01	7.53
50.303	26.18	35.89	0.01	7.53
50.333	26.20	35.92	0.01	7.53
50.363	26.20	35.92	0.15	7.67
50.393	26.20	35.92	0.15	7.67
50.422	26.23	35.95	0.15	7.67
50.452	26.23	35.95	0.04	7.55
50.482	26.23	35.95	0.04	7.55
50.512	26.46	36.18	0.04	7.55
50.541	26.46	36.18	0.10	7.62
50.571	26.46	36.18	0.10	7.62
50.601	26.46	36.18	0.10	7.62
50.631	26.46	36.18	0.11	7.63
50.660	26.46	36.18	0.11	7.63
50.690	26.45	36.17	0.11	7.63
50.720	26.45	36.17	0.00	7.52
50.750	26.45	36.17	0.00	7.52
50.780	26.16	35.88	0.00	7.52
50.809	26.16	35.88	0.16	7.68
50.839	26.16	35.88	0.16	7.68
50.869	26.28	36.00	0.16	7.68
50.899	26.28	36.00	0.03	7.55
50.928	26.28	36.00	0.03	7.55
50.958	26.43	36.15	0.03	7.55
50.988	26.43	36.15	0.10	7.62
51.018	26.43	36.15	0.10	7.62
51.047	26.36	36.08	0.10	7.62
51.077	26.36	36.08	0.11	7.63
51.107	26.36	36.08	0.11	7.63
51.137	26.24	35.95	0.11	7.63
51.167	26.24	35.95	0.00	7.52
51.196	26.24	35.95	0.00	7.52
51.226	26.24	35.96	0.00	7.52
51.256	26.24	35.96	0.16	7.68
51.286	26.24	35.96	0.16	7.68
51.315	26.51	36.23	0.16	7.68
51.345	26.51	36.23	0.04	7.55
51.375	26.51	36.23	0.04	7.55
51.405	26.26	35.98	0.04	7.55
51.434	26.26	35.98	0.10	7.62
51.464	26.26	35.98	0.10	7.62
51.494	26.24	35.96	0.10	7.62
51.524	26.24	35.96	0.12	7.64
51.553	26.24	35.96	0.12	7.64
51.583	26.34	36.06	0.12	7.64
51.613	26.34	36.06	0.00	7.52
51.643	26.34	36.06	0.00	7.52
51.672	26.30	36.02	0.00	7.52
51.702	26.30	36.02	0.16	7.68
51.732	26.30	36.02	0.16	7.68
51.762	26.42	36.14	0.16	7.68
51.792	26.42	36.14	0.03	7.55
51.821	26.42	36.14	0.03	7.55
51.851	26.34	36.06	0.03	7.55
51.881	26.34	36.06	0.11	7.63
51.911	26.34	36.06	0.11	7.63
51.940	25.99	35.71	0.11	7.63
51.970	25.99	35.71	0.11	7.63
52.000	25.99	35.71	0.11	7.63
52.030	26.20	35.92	0.11	7.63
52.059	26.20	35.92	0.01	7.53
52.089	26.20	35.92	0.01	7.53
52.119	26.18	35.90	0.01	7.53
52.149	26.18	35.90	0.16	7.68
52.178	26.18	35.90	0.16	7.68
52.208	26.16	35.88	0.16	7.68
52.238	26.16	35.88	0.03	7.55
52.268	26.16	35.88	0.03	7.55
52.297	26.07	35.79	0.03	7.55
52.327	26.07	35.79	0.10	7.62
52.357	26.07	35.79	0.10	7.62
52.387	26.05	35.77	0.10	7.62
52.417	26.05	35.77	0.11	7.63
52.446	26.05	35.77	0.11	7.63
52.476	26.05	35.77	0.11	7.63
52.506	26.05	35.77	0.00	7.52
52.536	26.05	35.77	0.00	7.52
52.565	25.98	35.69	0.00	7.52
52.595	25.98	35.69	0.16	7.68
52.625	25.98	35.69	0.16	7.68
52.655	26.28	36.00	0.16	7.68
52.684	26.28	36.00	0.03	7.55
52.714	26.28	36.00	0.03	7.55
52.744	26.16	35.88	0.03	7.55
52.774	26.16	35.88	0.11	7.63
52.803	26.16	35.88	0.11	7.63
52.833	25.99	35.71	0.11	7.63
52.863	25.99	35.71	0.11	7.63
52.893	25.99	35.71	0.11	7.63
52.922	26.01	35.73	0.11	7.63
52.952	26.01	35.73	0.00	7.52
52.982	26.01	35.73	0.00	7.52
53.012	26.06	35.78	0.00	7.52
53.041	26.06	35.78	0.16	7.68
53.071	26.06	35.78	0.16	7.68
53.101	26.00	35.72	0.16	7.68
53.131	26.00	35.72	0.03	7.55
53.161	26.00	35.72	0.03	7.55
53.190	26.08	35.80	0.03	7.55
53.220	26.08	35.80	0.11	7.63
53.250	26.08	35.80	0.11	7.63
53.280	26.14	35.86	0.11	7.63
53.309	26.14	35.86	0.11	7.63
53.339	26.14	35.86	0.11	7.63
53.369	26.15	35.87	0.11	7.63
53.399	26.15	35.87	0.00	7.52
53.428	26.15	35.87	0.00	7.52
53.458	25.90	35.62	0.00	7.52
53.488	25.90	35.62	0.16	7.68
53.518	25.90	35.62	0.16	7.68
53.547	26.20	35.92	0.16	7.68
53.577	26.20	35.92	0.03	7.55
53.607	26.20	35.92	0.03	7.55
53.637	26.13	35.85	0.03	7.55
53.667	26.13	35.85	0.11	7.63
53.696	26.13	35.85	0.11	7.63
53.726	26.00	35.72	0.11	7.63
53.756	26.00	35.72	0.10	7.62
53.786	26.00	35.72	0.10	7.62
53.815	25.97	35.69	0.10	7.62
53.845	25.97	35.69	0.01	7.53
53.875	25.97	35.69	0.01	7.53
53.905	26.14	35.86	0.01	7.53
53.934	26.14	35.86	0.16	7.68
53.964	26.14	35.86	0.16	7.68
53.994	26.27	35.99	0.16	7.68
54.024	26.27	35.99	0.03	7.55
54.053	26.27	35.99	0.03	7.55
54.083	26.00	35.72	0.03	7.55
54.113	26.00	35.72	0.11	7.63
54.143	26.00	35.72	0.11	7.63
54.173	25.94	35.65	0.11	7.63
54.202	25.94	35.65	0.10	7.62
54.232	25.94	35.65	0.10	7.62
54.262	26.01	35.73	0.10	7.62
54.292	26.01	35.73	0.01	7.53
54.321	26.01	35.73	0.01	7.53
54.351	25.86	35.58	0.01	7.53
54.381	25.86	35.58	0.16	7.68
54.411	25.86	35.58	0.16	7.68
54.440	25.99	35.71	0.16	7.68
54.470	25.99	35.71	0.03	7.54
54.500	25.99	35.71	0.03	7.54
54.530	25.98	35.69	0.03	7.54
54.559	25.98	35.69	0.11	7.63
54.589	25.98	35.69	0.11	7.63
54.619	25.92	35.64	0.11	7.63
54.649	25.92	35.64	0.09	7.61
54.678	25.92	35.64	0.09	7.61
54.708	25.82	35.54	0.09	7.61
54.738	25.82	35.54	0.01	7.53
54.768	25.82	35.54	0.01	7.53
54.797	26.03	35.74	0.01	7.53
54.827	26.03	35.74	0.16	7.68
54.857	26.03	35.74	0.16	7.68
54.887	25.82	35.54	0.16	7.68
54.917	25.82	35.54	0.02	7.54
54.946	25.82	35.54	0.02	7.54
54.976	25.75	35.47	0.02	7.54
55.006	25.75	35.47	0.11	7.63
55.036	25.75	35.47	0.11	7.63
55.065	26.01	35.73	0.11	7.63
55.095	26.01	35.73	0.09	7.61
55.125	26.01	35.73	0.09	7.61
55.155	25.77	35.49	0.09	7.61
55.184	25.77	35.49	0.01	7.53
55.214	25.77	35.49	0.01	7.53
55.244	25.72	35.44	0.01	7.53
55.274	25.72	35.44	0.16	7.68
55.303	25.72	35.44	0.16	7.68
55.333	25.93	35.65	0.16	7.68
55.363	25.93	35.65	0.02	7.54
55.393	25.93	35.65	0.02	7.54
55.423	26.11	35.83	0.02	7.54
55.452	26.11	35.83	0.11	7.63
55.482	26.11	35.83	0.11	7.63
55.512	25.94	35.66	0.11	7.63
55.542	25.94	35.66	0.09	7.60
55.571	25.94	35.66	0.09	7.60
55.601	26.01	35.73	0.09	7.60
55.631	26.01	35.73	0.01	7.53
55.661	26.01	35.73	0.01	7.53
55.690	25.77	35.49	0.01	7.53
55.720	25.77	35.49	0.16	7.68
55.750	25.77	35.49	0.16	7.68
55.780	25.98	35.70	0.16	7.68
55.809	25.98	35.70	0.02	7.54
55.839	25.98	35.70	0.02	7.54
55.869	25.77	35.49	0.02	7.54
55.899	25.77	35.49	0.11	7.63
55.928	25.77	35.49	0.11	7.63
55.958	25.87	35.59	0.11	7.63
55.988	25.87	35.59	0.09	7.60
56.018	25.87	35.59	0.09	7.60
56.048	25.79	35.51	0.09	7.60
56.077	25.79	35.51	0.02	7.54
56.107	25.79	35.51	0.02	7.54
56.137	25.79	35.51	0.02	7.54
56.167	25.79	35.51	0.16	7.68
56.196	25.79	35.51	0.16	7.68
56.226	25.82	35.54	0.16	7.68
56.256	25.82	35.54	0.01	7.53
56.286	25.82	35.54	0.01	7.53
56.315	25.92	35.64	0.01	7.53
56.345	25.92	35.64	0.12	7.64
56.375	25.92	35.64	0.12	7.64
56.405	25.87	35.59	0.12	7.64
56.434	25.87	35.59	0.08	7.60
56.464	25.87	35.59	0.08	7.60
56.494	25.86	35.58	0.08	7.60
56.524	25.86	35.58	0.02	7.54
56.554	25.86	35.58	0.02	7.54
56.583	25.84	35.56	0.02	7.54
56.613	25.84	35.56	0.16	7.68
56.643	25.84	35.56	0.16	7.68
56.673	25.89	35.61	0.16	7.68
56.702	25.89	35.61	0.01	7.53
56.732	25.89	35.61	0.01	7.53
56.762	25.80	35.52	0.01	7.53
56.792	25.80	35.52	0.11	7.63
56.821	25.80	35.52	0.11	7.63
56.851	25.73	35.45	0.11	7.63
56.881	25.73	35.45	0.07	7.59
56.911	25.73	35.45	0.07	7.59
56.940	25.73	35.45	0.07	7.59
56.970	25.73	35.45	0.03	7.55
57.000	25.73	35.45	0.03	7.55
57.030	25.71	35.43	0.03	7.55
57.060	25.71	35.43	0.16	7.68
57.089	25.71	35.43	0.16	7.68
57.119	25.71	35.43	0.16	7.68
57.149	25.71	35.43	0.01	7.53
57.179	25.71	35.43	0.01	7.53
57.208	25.81	35.53	0.01	7.53
57.238	25.81	35.53	0.12	7.64
57.268	25.81	35.53	0.12	7.64
57.298	25.74	35.46	0.12	7.64
57.327	25.74	35.46	0.07	7.59
57.357	25.74	35.46	0.07	7.59
57.387	25.88	35.59	0.07	7.59
57.417	25.88	35.59	0.03	7.55
57.446	25.88	35.59	0.03	7.55
57.476	25.83	35.55	0.03	7.55
57.506	25.83	35.55	0.16	7.68
57.536	25.83	35.55	0.16	7.68
57.565	25.81	35.53	0.16	7.68
57.595	25.81	35.53	0.01	7.53
57.625	25.81	35.53	0.01	7.53
57.655	25.81	35.53	0.01	7.53
57.684	25.81	35.53	0.12	7.64
57.714	25.81	35.53	0.12	7.64
57.744	25.53	35.25	0.12	7.64
57.774	25.53	35.25	0.06	7.58
57.803	25.53	35.25	0.06	7.58
57.833	25.50	35.22	0.06	7.58
57.863	25.50	35.22	0.03	7.55
57.893	25.50	35.22	0.03	7.55
57.922	25.60	35.32	0.03	7.55
57.952	25.60	35.32	0.16	7.68
57.982	25.60	35.32	0.16	7.68
58.012	25.77	35.49	0.16	7.68
58.041	25.77	35.49	0.01	7.53
58.071	25.77	35.49	0.01	7.53
58.101	25.74	35.46	0.01	7.53
58.131	25.74	35.46	0.13	7.65
58.161	25.74	35.46	0.13	7.65
58.190	25.67	35.39	0.13	7.65
58.220	25.67	35.39	0.06	7.58
58.250	25.67	35.39	0.06	7.58
58.280	25.68	35.39	0.06	7.58
58.309	25.68	35.39	0.04	7.56
58.339	25.68	35.39	0.04	7.56
58.369	25.81	35.53	0.04	7.56
58.399	25.81	35.53	0.16	7.68
58.428	25.81	35.53	0.16	7.68
58.458	25.85	35.57	0.16	7.68
58.488	25.85	35.57	0.01	7.53
58.518	25.85	35.57	0.01	7.53
58.547	25.78	35.50	0.01	7.53
58.577	25.78	35.50	0.13	7.64
58.607	25.78	35.50	0.13	7.64
58.637	25.51	35.23	0.13	7.64
58.667	25.51	35.23	0.06	7.58
58.696	25.51	35.23	0.06	7.58
58.726	25.65	35.37	0.06	7.58
58.756	25.65	35.37	0.05	7.57
58.786	25.65	35.37	0.05	7.57
58.815	25.64	35.36	0.05	7.57
58.845	25.64	35.36	0.16	7.68
58.875	25.64	35.36	0.16	7.68
58.905	25.57	35.29	0.16	7.68
58.934	25.57	35.29	0.00	7.52
58.964	25.57	35.29	0.00	7.52
58.994	25.69	35.41	0.00	7.52
59.024	25.69	35.41	0.13	7.65
59.053	25.69	35.41	0.13	7.65
59.083	25.53	35.25	0.13	7.65
59.113	25.53	35.25	0.05	7.57
59.143	25.53	35.25	0.05	7.57
59.173	25.56	35.28	0.05	7.57
59.202	25.56	35.28	0.05	7.57
59.232	25.56	35.28	0.05	7.57
59.262	25.61	35.33	0.05	7.57
59.292	25.61	35.33	0.16	7.68
59.321	25.61	35.33	0.16	7.68
59.351	25.73	35.44	0.16	7.68
59.381	25.73	35.44	0.00	7.52
59.411	25.73	35.44	0.00	7.52
59.440	25.63	35.35	0.00	7.52
59.470	25.63	35.35	0.13	7.65
59.500	25.63	35.35	0.13	7.65
59.530	25.62	35.34	0.13	7.65
59.559	25.62	35.34	0.05	7.57
59.589	25.62	35.34	0.05	7.57
59.619	25.58	35.30	0.05	7.57
59.649	25.58	35.30	0.06	7.58
59.678	25.58	35.30	0.06	7.58
59.708	25.65	35.37	0.06	7.58
59.738	25.65	35.37	0.15	7.67
59.768	25.65	35.37	0.15	7.67
59.798	25.69	35.41	0.15	7.67
59.827	25.69	35.41	0.01	7.53
59.857	25.69	35.41	0.01	7.53
59.887	25.59	35.31	0.01	7.53
59.917	25.59	35.31	0.14	7.65
59.946	25.59	35.31	0.14	7.65
59.976	25.67	35.39	0.14	7.65
60.006	25.67	35.39	0.05	7.57
60.036	25.67	35.39	0.05	7.57
60.065	25.64	35.36	0.05	7.57
60.095	25.64	35.36	0.06	7.58
60.125	25.64	35.36	0.06	7.58
60.155	25.63	35.35	0.06	7.58
60.184	25.63	35.35	0.15	7.67
60.214	25.63	35.35	0.15	7.67
60.244	25.70	35.42	0.15	7.67
60.274	25.70	35.42	0.00	7.52
60.303	25.70	35.42	0.00	7.52
60.333	25.65	35.37	0.00	7.52
60.363	25.65	35.37	0.14	7.66
60.393	25.65	35.37	0.14	7.66
60.423	25.77	35.49	0.14	7.66
60.452	25.77	35.49	0.05	7.57
60.482	25.77	35.49	0.05	7.57
60.512	25.74	35.46	0.05	7.57
60.542	25.74	35.46	0.07	7.59
60.571	25.74	35.46	0.07	7.59
60.601	25.63	35.34	0.07	7.59
60.631	25.63	35.34	0.15	7.67
60.661	25.63	35.34	0.15	7.67
60.690	25.52	35.24	0.15	7.67
60.720	25.52	35.24	0.00	7.52
60.750	25.52	35.24	0.00	7.52
60.780	25.47	35.19	0.00	7.52
60.809	25.47	35.19	0.15	7.67
60.839	25.47	35.19	0.15	7.67
60.869	25.56	35.28	0.15	7.67
60.899	25.56	35.28	0.05	7.57
60.928	25.56	35.28	0.05	7.57
60.958	25.38	35.10	0.05	7.57
60.988	25.38	35.10	0.08	7.60
61.018	25.38	35.10	0.08	7.60
61.047	25.47	35.19	0.08	7.60
61.077	25.47	35.19	0.15	7.67
61.107	25.47	35.19	0.15	7.67
61.137	25.48	35.19	0.15	7.67
61.167	25.48	35.19	0.00	7.52
61.196	25.48	35.19	0.00	7.52
61.226	25.48	35.20	0.00	7.52
61.256	25.48	35.20	0.15	7.67
61.286	25.48	35.20	0.15	7.67
61.315	25.42	35.14	0.15	7.67
61.345	25.42	35.14	0.05	7.57
61.375	25.42	35.14	0.05	7.57
61.405	25.40	35.12	0.05	7.57
61.434	25.40	35.12	0.08	7.60
61.464	25.40	35.12	0.08	7.60
61.494	25.33	35.05	0.08	7.60
61.524	25.33	35.05	0.14	7.66
61.553	25.33	35.05	0.14	7.66
61.583	25.19	34.91	0.14	7.66
61.613	25.19	34.91	0.00	7.52
61.643	25.19	34.91	0.00	7.52
61.672	25.40	35.12	0.00	7.52
61.702	25.40	35.12	0.15	7.67
61.732	25.40	35.12	0.15	7.67
61.762	25.27	34.99	0.15	7.67
61.791	25.27	34.99	0.05	7.57
61.821	25.27	34.99	0.05	7.57
61.851	25.37	35.09	0.05	7.57
61.881	25.37	35.09	0.09	7.61
61.910	25.37	35.09	0.09	7.61
61.940	25.40	35.12	0.09	7.61
61.970	25.40	35.12	0.14	7.65
62.000	25.40	35.12	0.14	7.65
62.030	25.32	35.04	0.14	7.65
62.059	25.32	35.04	0.00	7.52
62.089	25.32	35.04	0.00	7.52
62.119	25.41	35.13	0.00	7.52
62.149	25.41	35.13	0.15	7.67
62.178	25.41	35.13	0.15	7.67
62.208	25.31	35.03	0.15	7.67
62.238	25.31	35.03	0.04	7.56
62.268	25.31	35.03	0.04	7.56
62.297	25.40	35.12	0.04	7.56
62.327	25.40	35.12	0.10	7.62
62.357	25.40	35.12	0.10	7.62
62.387	25.56	35.28	0.10	7.62
62.416	25.56	35.28	0.13	7.65
62.446	25.56	35.28	0.13	7.65
62.476	25.44	35.16	0.13	7.65
62.506	25.44	35.16	0.00	7.52
62.536	25.44	35.16	0.00	7.52
62.565	25.48	35.19	0.00	7.52
62.595	25.48	35.19	0.15	7.67
62.625	25.48	35.19	0.15	7.67
62.655	25.53	35.25	0.15	7.67
62.684	25.53	35.25	0.04	7.56
62.714	25.53	35.25	0.04	7.56
62.744	25.48	35.20	0.04	7.56
62.774	25.48	35.20	0.10	7.62
62.803	25.48	35.20	0.10	7.62
62.833	25.59	35.31	0.10	7.62
62.863	25.59	35.31	0.13	7.65
62.893	25.59	35.31	0.13	7.65
62.922	25.74	35.46	0.13	7.65
62.952	25.74	35.46	0.01	7.53
62.982	25.74	35.46	0.01	7.53
63.012	25.68	35.40	0.01	7.53
63.042	25.68	35.40	0.15	7.67
63.071	25.68	35.40	0.15	7.67
63.101	25.76	35.48	0.15	7.67
63.131	25.76	35.48	0.04	7.55
63.161	25.76	35.48	0.04	7.55
63.190	25.93	35.65	0.04	7.55
63.220	25.93	35.65	0.10	7.62
63.250	25.93	35.65	0.10	7.62
63.280	25.77	35.49	0.10	7.62
63.309	25.77	35.49	0.12	7.64
63.339	25.77	35.49	0.12	7.64
63.369	25.72	35.44	0.12	7.64
63.399	25.72	35.44	0.00	7.52
63.428	25.72	35.44	0.00	7.52
63.458	25.70	35.42	0.00	7.52
63.488	25.70	35.42	0.15	7.67
63.518	25.70	35.42	0.15	7.67
63.547	25.69	35.41	0.15	7.67
63.577	25.69	35.41	0.03	7.55
63.607	25.69	35.41	0.03	7.55
63.637	25.81	35.53	0.03	7.55
63.666	25.81	35.53	0.10	7.62
63.696	25.81	35.53	0.10	7.62
63.726	26.01	35.73	0.10	7.62
63.756	26.01	35.73	0.11	7.63
63.786	26.01	35.73	0.11	7.63
63.815	25.80	35.52	0.11	7.63
63.845	25.80	35.52	0.00	7.52
63.875	25.80	35.52	0.00	7.52
63.905	25.90	35.62	0.00	7.52
63.934	25.90	35.62	0.15	7.67
63.964	25.90	35.62	0.15	7.67
63.994	25.66	35.38	0.15	7.67
64.024	25.66	35.38	0.03	7.55
64.053	25.66	35.38	0.03	7.55
64.083	25.86	35.58	0.03	7.55
64.113	25.86	35.58	0.11	7.63
64.143	25.86	35.58	0.11	7.63
64.172	26.02	35.74	0.11	7.63
64.202	26.02	35.74	0.10	7.62
64.232	26.02	35.74	0.10	7.62
64.262	26.02	35.74	0.10	7.62
64.292	26.02	35.74	0.00	7.52
64.321	26.02	35.74	0.00	7.52
64.351	26.10	35.82	0.00	7.52
64.381	26.10	35.82	0.16	7.68
64.411	26.10	35.82	0.16	7.68
64.440	26.19	35.91	0.16	7.68
64.470	26.19	35.91	0.03	7.54
64.500	26.19	35.91	0.03	7.54
64.530	26.07	35.79	0.03	7.54
64.559	26.07	35.79	0.11	7.63
64.589	26.07	35.79	0.11	7.63
64.619	26.29	36.00	0.11	7.63
64.649	26.29	36.00	0.09	7.61
64.678	26.29	36.00	0.09	7.61
64.708	26.25	35.97	0.09	7.61
64.738	26.25	35.97	0.01	7.53
64.768	26.25	35.97	0.01	7.53
64.798	26.15	35.87	0.01	7.53
64.827	26.15	35.87	0.16	7.68
64.857	26.15	35.87	0.16	7.68
64.887	26.14	35.85	0.16	7.68
64.917	26.14	35.85	0.02	7.54
64.946	26.14	35.85	0.02	7.54
64.976	26.22	35.94	0.02	7.54
65.006	26.22	35.94	0.11	7.63
65.036	26.22	35.94	0.11	7.63
65.065	26.34	36.06	0.11	7.63
65.095	26.34	36.06	0.09	7.60
65.125	26.34	36.06	0.09	7.60
65.155	26.20	35.92	0.09	7.60
65.184	26.20	35.92	0.01	7.53
65.214	26.20	35.92	0.01	7.53
65.244	26.35	36.07	0.01	7.53
65.274	26.35	36.07	0.16	7.68
65.303	26.35	36.07	0.16	7.68
65.333	26.41	36.13	0.16	7.68
65.363	26.41	36.13	0.02	7.54
65.393	26.41	36.13	0.02	7.54
65.423	26.27	35.99	0.02	7.54
65.452	26.27	35.99	0.11	7.63
65.482	26.27	35.99	0.11	7.63
65.512	26.38	36.10	0.11	7.63
65.542	26.38	36.10	0.08	7.60
65.571	26.38	36.10	0.08	7.60
65.601	26.39	36.11	0.08	7.60
65.631	26.39	36.11	0.02	7.54
65.661	26.39	36.11	0.02	7.54
65.690	26.42	36.14	0.02	7.54
65.720	26.42	36.14	0.16	7.68
65.750	26.42	36.14	0.16	7.68
65.780	26.21	35.93	0.16	7.68
65.809	26.21	35.93	0.01	7.53
65.839	26.21	35.93	0.01	7.53
65.869	26.29	36.00	0.01	7.53
65.899	26.29	36.00	0.12	7.64
65.929	26.29	36.00	0.12	7.64
65.958	26.35	36.07	0.12	7.64
65.988	26.35	36.07	0.07	7.59
66.018	26.35	36.07	0.07	7.59
66.048	26.28	36.00	0.07	7.59
66.077	26.28	36.00	0.03	7.55
66.107	26.28	36.00	0.03	7.55
66.137	26.55	36.27	0.03	7.55
66.167	26.55	36.27	0.16	7.68
66.196	26.55	36.27	0.16	7.68
66.226	26.52	36.24	0.16	7.68
66.256	26.52	36.24	0.01	7.53
66.286	26.52	36.24	0.01	7.53
66.315	26.39	36.11	0.01	7.53
66.345	26.39	36.11	0.12	7.64
66.375	26.39	36.11	0.12	7.64
66.405	26.40	36.12	0.12	7.64
66.434	26.40	36.12	0.07	7.59
66.464	26.40	36.12	0.07	7.59
66.494	26.35	36.07	0.07	7.59
66.524	26.35	36.07	0.03	7.55
66.554	26.35	36.07	0.03	7.55
66.583	26.46	36.18	0.03	7.55
66.613	26.46	36.18	0.16	7.68
66.643	26.46	36.18	0.16	7.68
66.673	26.30	36.02	0.16	7.68
66.702	26.30	36.02	0.01	7.53
66.732	26.30	36.02	0.01	7.53
66.762	26.33	36.05	0.01	7.53
66.792	26.33	36.05	0.12	7.64
66.821	26.33	36.05	0.12	7.64
66.851	26.47	36.19	0.12	7.64
66.881	26.47	36.19	0.06	7.58
66.911	26.47	36.19	0.06	7.58
66.940	26.36	36.08	0.06	7.58
66.970	26.36	36.08	0.04	7.56
67.000	26.36	36.08	0.04	7.56
67.030	26.42	36.14	0.04	7.56
67.059	26.42	36.14	0.16	7.68
67.089	26.42	36.14	0.16	7.68
67.119	26.44	36.16	0.16	7.68
67.149	26.44	36.16	0.01	7.53
67.179	26.44	36.16	0.01	7.53
67.208	26.41	36.13	0.01	7.53
67.238	26.41	36.13	0.13	7.65
67.268	26.41	36.13	0.13	7.65
67.298	26.35	36.07	0.13	7.65
67.327	26.35	36.07	0.06	7.58
67.357	26.35	36.07	0.06	7.58
67.387	26.09	35.81	0.06	7.58
67.417	26.09	35.81	0.04	7.56
67.446	26.09	35.81	0.04	7.56
67.476	26.37	36.09	0.04	7.56
67.506	26.37	36.09	0.16	7.68
67.536	26.37	36.09	0.16	7.68
67.565	26.42	36.14	0.16	7.68
67.595	26.42	36.14	0.01	7.53
67.625	26.42	36.14	0.01	7.53
67.655	26.35	36.07	0.01	7.53
67.685	26.35	36.07	0.13	7.65
67.714	26.35	36.07	0.13	7.65
67.744	26.49	36.20	0.13	7.65
67.774	26.49	36.20	0.05	7.57
67.804	26.49	36.20	0.05	7.57
67.833	26.30	36.02	0.05	7.57
67.863	26.30	36.02	0.05	7.57
67.893	26.30	36.02	0.05	7.57
67.923	26.61	36.33	0.05	7.57
67.952	26.61	36.33	0.16	7.68
67.982	26.61	36.33	0.16	7.68
68.012	26.42	36.14	0.16	7.68
68.042	26.42	36.14	0.00	7.52
68.071	26.42	36.14	0.00	7.52
68.101	26.38	36.09	0.00	7.52
68.131	26.38	36.09	0.14	7.66
68.161	26.38	36.09	0.14	7.66
68.190	26.30	36.02	0.14	7.66
68.220	26.30	36.02	0.05	7.57
68.250	26.30	36.02	0.05	7.57
68.280	26.37	36.09	0.05	7.57
68.309	26.37	36.09	0.06	7.58
68.339	26.37	36.09	0.06	7.58
68.369	26.62	36.34	0.06	7.58
68.399	26.62	36.34	0.16	7.68
68.428	26.62	36.34	0.16	7.68
68.458	26.48	36.20	0.16	7.68
68.488	26.48	36.20	0.01	7.53
68.518	26.48	36.20	0.01	7.53
68.547	26.56	36.28	0.01	7.53
68.577	26.56	36.28	0.14	7.66
68.607	26.56	36.28	0.14	7.66
68.637	26.46	36.18	0.14	7.66
68.666	26.46	36.18	0.05	7.57
68.696	26.46	36.18	0.05	7.57
68.726	26.34	36.06	0.05	7.57
68.756	26.34	36.06	0.06	7.58
68.786	26.34	36.06	0.06	7.58
68.815	26.38	36.10	0.06	7.58
68.845	26.38	36.10	0.16	7.68
68.875	26.38	36.10	0.16	7.68
68.905	26.19	35.90	0.16	7.68
68.934	26.19	35.90	-0.00	7.52
68.964	26.19	35.90	-0.00	7.52
68.994	26.25	35.97	-0.00	7.52
69.024	26.25	35.97	0.14	7.65
69.053	26.25	35.97	0.14	7.65
69.083	26.22	35.94	0.14	7.65
69.113	26.22	35.94	0.05	7.57
69.143	26.22	35.94	0.05	7.57
69.172	26.25	35.97	0.05	7.57
69.202	26.25	35.97	0.07	7.59
69.232	26.25	35.97	0.07	7.59
69.262	26.43	36.15	0.07	7.59
69.292	26.43	36.15	0.15	7.67
69.321	26.43	36.15	0.15	7.67
69.351	26.34	36.05	0.15	7.67
69.381	26.34	36.05	0.00	7.52
69.411	26.34	36.05	0.00	7.52
69.440	26.37	36.09	0.00	7.52
69.470	26.37	36.09	0.14	7.66
69.500	26.37	36.09	0.14	7.66
69.530	26.38	36.10	0.14	7.66
69.559	26.38	36.10	0.04	7.56
69.589	26.38	36.10	0.04	7.56
69.619	26.41	36.13	0.04	7.56
69.649	26.41	36.13	0.08	7.60
69.678	26.41	36.13	0.08	7.60
69.708	26.58	36.29	0.08	7.60
69.738	26.58	36.29	0.15	7.67
69.768	26.58	36.29	0.15	7.67
69.797	26.51	36.23	0.15	7.67
69.827	26.51	36.23	0.00	7.52
69.857	26.51	36.23	0.00	7.52
69.887	26.54	36.26	0.00	7.52
69.917	26.54	36.26	0.15	7.67
69.946	26.54	36.26	0.15	7.67
69.976	26.39	36.11	0.15	7.67
70.006	26.39	36.11	0.04	7.56
70.036	26.39	36.11	0.04	7.56
70.065	26.40	36.12	0.04	7.56
70.095	26.40	36.12	0.08	7.60
70.125	26.40	36.12	0.08	7.60
70.155	26.38	36.10	0.08	7.60
70.184	26.38	36.10	0.14	7.66
70.214	26.38	36.10	0.14	7.66
70.244	26.35	36.07	0.14	7.66
70.274	26.35	36.07	0.00	7.52
70.303	26.35	36.07	0.00	7.52
70.333	26.31	36.03	0.00	7.52
70.363	26.31	36.03	0.15	7.67
70.393	26.31	36.03	0.15	7.67
70.422	26.37	36.09	0.15	7.67
70.452	26.37	36.09	0.04	7.56
70.482	26.37	36.09	0.04	7.56
70.512	26.33	36.05	0.04	7.56
70.541	26.33	36.05	0.09	7.61
70.571	26.33	36.05	0.09	7.61
70.601	26.52	36.24	0.09	7.61
70.631	26.52	36.24	0.13	7.65
70.661	26.52	36.24	0.13	7.65
70.690	26.46	36.18	0.13	7.65
70.720	26.46	36.18	0.00	7.52
70.750	26.46	36.18	0.00	7.52
70.780	26.49	36.20	0.00	7.52
70.809	26.49	36.20	0.15	7.67
70.839	26.49	36.20	0.15	7.67
70.869	26.41	36.13	0.15	7.67
70.899	26.41	36.13	0.04	7.56
70.928	26.41	36.13	0.04	7.56
70.958	26.34	36.05	0.04	7.56
70.988	26.34	36.05	0.10	7.62
71.018	26.34	36.05	0.10	7.62
71.047	26.35	36.07	0.10	7.62
71.077	26.35	36.07	0.13	7.65
71.107	26.35	36.07	0.13	7.65
71.137	26.47	36.19	0.13	7.65
71.167	26.47	36.19	0.01	7.53
71.196	26.47	36.19	0.01	7.53
71.226	26.46	36.18	0.01	7.53
71.256	26.46	36.18	0.15	7.67
71.286	26.46	36.18	0.15	7.67
71.315	26.34	36.05	0.15	7.67
71.345	26.34	36.05	0.04	7.55
71.375	26.34	36.05	0.04	7.55
71.405	26.52	36.24	0.04	7.55
71.434	26.52	36.24	0.10	7.62
71.464	26.52	36.24	0.10	7.62
71.494	26.53	36.25	0.10	7.62
71.524	26.53	36.25	0.12	7.64
71.553	26.53	36.25	0.12	7.64
71.583	26.49	36.21	0.12	7.64
71.613	26.49	36.21	0.01	7.53
71.643	26.49	36.21	0.01	7.53
71.672	26.44	36.16	0.01	7.53
71.702	26.44	36.16	0.16	7.68
71.732	26.44	36.16	0.16	7.68
71.762	26.47	36.19	0.16	7.68
71.792	26.47	36.19	0.03	7.55
71.821	26.47	36.19	0.03	7.55
71.851	26.48	36.20	0.03	7.55
71.881	26.48	36.20	0.11	7.63
71.911	26.48	36.20	0.11	7.63
71.940	26.57	36.29	0.11	7.63
71.970	26.57	36.29	0.11	7.63
72.000	26.57	36.29	0.11	7.63
72.030	26.36	36.08	0.11	7.63
72.059	26.36	36.08	0.00	7.52
72.089	26.36	36.08	0.00	7.52
72.119	26.30	36.02	0.00	7.52
72.149	26.30	36.02	0.15	7.67
72.178	26.30	36.02	0.15	7.67
72.208	26.39	36.10	0.15	7.67
72.238	26.39	36.10	0.03	7.55
72.268	26.39	36.10	0.03	7.55
72.298	26.40	36.12	0.03	7.55
72.327	26.40	36.12	0.11	7.63
72.357	26.40	36.12	0.11	7.63
72.387	26.37	36.09	0.11	7.63
72.417	26.37	36.09	0.10	7.62
72.446	26.37	36.09	0.10	7.62
72.476	26.40	36.12	0.10	7.62
72.506	26.40	36.12	0.00	7.52
72.536	26.40	36.12	0.00	7.52
72.565	26.40	36.12	0.00	7.52
72.595	26.40	36.12	0.16	7.68
72.625	26.40	36.12	0.16	7.68
72.655	26.33	36.05	0.16	7.68
72.684	26.33	36.05	0.03	7.55
72.714	26.33	36.05	0.03	7.55
72.744	26.37	36.09	0.03	7.55
72.774	26.37	36.09	0.11	7.63
72.803	26.37	36.09	0.11	7.63
72.833	26.59	36.31	0.11	7.63
72.863	26.59	36.31	0.10	7.62
72.893	26.59	36.31	0.10	7.62
72.923	26.41	36.13	0.10	7.62
72.952	26.41	36.13	0.01	7.53
72.982	26.41	36.13	0.01	7.53
73.012	26.32	36.04	0.01	7.53
73.042	26.32	36.04	0.16	7.68
73.071	26.32	36.04	0.16	7.68
73.101	26.51	36.23	0.16	7.68
73.131	26.51	36.23	0.03	7.54
73.161	26.51	36.23	0.03	7.54
73.190	26.40	36.12	0.03	7.54
73.220	26.40	36.12	0.11	7.63
73.250	26.40	36.12	0.11	7.63
73.280	26.55	36.27	0.11	7.63
73.309	26.55	36.27	0.09	7.61
73.339	26.55	36.27	0.09	7.61
73.369	26.51	36.23	0.09	7.61
73.399	26.51	36.23	0.01	7.53
73.428	26.51	36.23	0.01	7.53
73.458	26.54	36.26	0.01	7.53
73.488	26.54	36.26	0.16	7.68
73.518	26.54	36.26	0.16	7.68
73.548	26.46	36.18	0.16	7.68
73.577	26.46	36.18	0.02	7.54
73.607	26.46	36.18	0.02	7.54
73.637	26.62	36.34	0.02	7.54
73.667	26.62	36.34	0.12	7.64
73.696	26.62	36.34	0.12	7.64
73.726	26.71	36.43	0.12	7.64
73.756	26.71	36.43	0.08	7.60
73.786	26.71	36.43	0.08	7.60
73.815	26.55	36.27	0.08	7.60
73.845	26.55	36.27	0.02	7.54
73.875	26.55	36.27	0.02	7.54
73.905	26.61	36.33	0.02	7.54
73.934	26.61	36.33	0.16	7.68
73.964	26.61	36.33	0.16	7.68
73.994	26.66	36.38	0.16	7.68
74.024	26.66	36.38	0.01	7.53
74.054	26.66	36.38	0.01	7.53
74.083	26.63	36.35	0.01	7.53
74.113	26.63	36.35	0.11	7.63
74.143	26.63	36.35	0.11	7.63
74.173	26.54	36.25	0.11	7.63
74.202	26.54	36.25	0.08	7.60
74.232	26.54	36.25	0.08	7.60
74.262	26.52	36.24	0.08	7.60
74.292	26.52	36.24	0.03	7.54
74.321	26.52	36.24	0.03	7.54
74.351	26.66	36.38	0.03	7.54
74.381	26.66	36.38	0.16	7.68
74.411	26.66	36.38	0.16	7.68
74.440	26.72	36.44	0.16	7.68
74.470	26.72	36.44	0.01	7.53
74.500	26.72	36.44	0.01	7.53
74.530	26.65	36.37	0.01	7.53
74.559	26.65	36.37	0.12	7.64
74.589	26.65	36.37	0.12	7.64
74.619	26.71	36.43	0.12	7.64
74.649	26.71	36.43	0.07	7.59
74.679	26.71	36.43	0.07	7.59
74.708	26.68	36.40	0.07	7.59
74.738	26.68	36.40	0.03	7.55
74.768	26.68	36.40	0.03	7.55
74.798	26.60	36.32	0.03	7.55
74.827	26.60	36.32	0.16	7.68
74.857	26.60	36.32	0.16	7.68
74.887	26.38	36.10	0.16	7.68
74.917	26.38	36.10	0.01	7.53
74.946	26.38	36.10	0.01	7.53
74.976	26.53	36.25	0.01	7.53
75.006	26.53	36.25	0.12	7.64
75.036	26.53	36.25	0.12	7.64
75.065	26.44	36.15	0.12	7.64
75.095	26.44	36.15	0.06	7.58
75.125	26.44	36.15	0.06	7.58
75.155	26.43	36.15	0.06	7.58
75.185	26.43	36.15	0.03	7.55
75.214	26.43	36.15	0.03	7.55
75.244	26.45	36.17	0.03	7.55
75.274	26.45	36.17	0.16	7.68
75.304	26.45	36.17	0.16	7.68
75.333	26.39	36.11	0.16	7.68
75.363	26.39	36.11	0.01	7.53
75.393	26.39	36.11	0.01	7.53
75.423	26.54	36.26	0.01	7.53
75.452	26.54	36.26	0.13	7.65
75.482	26.54	36.26	0.13	7.65
75.512	26.51	36.23	0.13	7.65
75.542	26.51	36.23	0.06	7.58
75.571	26.51	36.23	0.06	7.58
75.601	26.58	36.30	0.06	7.58
75.631	26.58	36.30	0.04	7.56
75.661	26.58	36.30	0.04	7.56
75.690	26.50	36.22	0.04	7.56
75.720	26.50	36.22	0.16	7.68
75.750	26.50	36.22	0.16	7.68
75.780	26.45	36.17	0.16	7.68
75.810	26.45	36.17	0.01	7.53
75.839	26.45	36.17	0.01	7.53
75.869	26.35	36.07	0.01	7.53
75.899	26.35	36.07	0.13	7.65
75.929	26.35	36.07	0.13	7.65
75.958	26.33	36.05	0.13	7.65
75.988	26.33	36.05	0.06	7.58
76.018	26.33	36.05	0.06	7.58
76.048	26.42	36.14	0.06	7.58
76.077	26.42	36.14	0.05	7.57
76.107	26.42	36.14	0.05	7.57
76.137	26.40	36.12	0.05	7.57
76.167	26.40	36.12	0.16	7.68
76.196	26.40	36.12	0.16	7.68
76.226	26.39	36.11	0.16	7.68
76.256	26.39	36.11	0.01	7.53
76.286	26.39	36.11	0.01	7.53
76.316	26.44	36.15	0.01	7.53
76.345	26.44	36.15	0.13	7.65
76.375	26.44	36.15	0.13	7.65
76.405	26.45	36.17	0.13	7.65
76.435	26.45	36.17	0.05	7.57
76.464	26.45	36.17	0.05	7.57
76.494	26.38	36.09	0.05	7.57
76.524	26.38	36.09	0.05	7.57
76.553	26.38	36.09	0.05	7.57
76.583	26.38	36.10	0.05	7.57
76.613	26.38	36.10	0.16	7.68
76.643	26.38	36.10	0.16	7.68
76.672	26.33	36.05	0.16	7.68
76.702	26.33	36.05	0.01	7.53
76.732	26.33	36.05	0.01	7.53
76.762	26.44	36.16	0.01	7.53
76.792	26.44	36.16	0.14	7.65
76.821	26.44	36.16	0.14	7.65
76.851	26.27	35.99	0.14	7.65
76.881	26.27	35.99	0.05	7.57
76.911	26.27	35.99	0.05	7.57
76.940	26.26	35.98	0.05	7.57
76.970	26.26	35.98	0.06	7.58
77.000	26.26	35.98	0.06	7.58
77.030	26.28	36.00	0.06	7.58
77.059	26.28	36.00	0.15	7.67
77.089	26.28	36.00	0.15	7.67
77.119	26.27	35.99	0.15	7.67
77.149	26.27	35.99	0.00	7.52
77.178	26.27	35.99	0.00	7.52
77.208	26.30	36.02	0.00	7.52
77.238	26.30	36.02	0.14	7.66
77.268	26.30	36.02	0.14	7.66
77.297	26.26	35.98	0.14	7.66
77.327	26.26	35.98	0.05	7.57
77.357	26.26	35.98	0.05	7.57
77.387	26.35	36.07	0.05	7.57
77.417	26.35	36.07	0.07	7.59
77.446	26.35	36.07	0.07	7.59
77.476	26.27	35.99	0.07	7.59
77.506	26.27	35.99	0.15	7.67
77.536	26.27	35.99	0.15	7.67
77.565	26.24	35.96	0.15	7.67
77.595	26.24	35.96	0.00	7.52
77.625	26.24	35.96	0.00	7.52
77.655	26.42	36.14	0.00	7.52
77.684	26.42	36.14	0.14	7.66
77.714	26.42	36.14	0.14	7.66
77.744	26.19	35.90	0.14	7.66
77.774	26.19	35.90	0.05	7.57
77.803	26.19	35.90	0.05	7.57
77.833	26.40	36.12	0.05	7.57
77.863	26.40	36.12	0.08	7.59
77.893	26.40	36.12	0.08	7.59
77.922	26.26	35.98	0.08	7.59
77.952	26.26	35.98	0.15	7.67
77.982	26.26	35.98	0.15	7.67
78.012	26.27	35.99	0.15	7.67
78.042	26.27	35.99	0.00	7.52
78.071	26.27	35.99	0.00	7.52
78.101	26.39	36.11	0.00	7.52
78.131	26.39	36.11	0.15	7.67
78.160	26.39	36.11	0.15	7.67
78.190	26.28	36.00	0.15	7.67
78.220	26.28	36.00	0.05	7.57
78.250	26.28	36.00	0.05	7.57
78.280	26.41	36.13	0.05	7.57
78.309	26.41	36.13	0.08	7.60
78.339	26.41	36.13	0.08	7.60
78.369	26.35	36.07	0.08	7.60
78.399	26.35	36.07	0.14	7.66
78.428	26.35	36.07	0.14	7.66
78.458	26.39	36.10	0.14	7.66
78.488	26.39	36.10	0.01	7.53
78.518	26.39	36.10	0.01	7.53
78.547	26.38	36.10	0.01	7.53
78.577	26.38	36.10	0.15	7.67
78.607	26.38	36.10	0.15	7.67
78.637	26.37	36.09	0.15	7.67
78.666	26.37	36.09	0.05	7.57
78.696	26.37	36.09	0.05	7.57
78.726	26.48	36.19	0.05	7.57
78.756	26.48	36.19	0.08	7.60
78.785	26.48	36.19	0.08	7.60
78.815	26.33	36.05	0.08	7.60
78.845	26.33	36.05	0.14	7.66
78.875	26.33	36.05	0.14	7.66
78.905	26.34	36.06	0.14	7.66
78.934	26.34	36.06	0.00	7.52
78.964	26.34	36.06	0.00	7.52
78.994	26.38	36.10	0.00	7.52
79.024	26.38	36.10	0.15	7.67
79.053	26.38	36.10	0.15	7.67
79.083	26.39	36.11	0.15	7.67
79.113	26.39	36.11	0.05	7.57
79.143	26.39	36.11	0.05	7.57
79.172	26.44	36.16	0.05	7.57
79.202	26.44	36.16	0.10	7.62
79.232	26.44	36.16	0.10	7.62
79.262	26.41	36.13	0.10	7.62
79.291	26.41	36.13	0.13	7.65
79.321	26.41	36.13	0.13	7.65
79.351	26.39	36.10	0.13	7.65
79.381	26.39	36.10	0.00	7.52
79.410	26.39	36.10	0.00	7.52
79.440	26.35	36.07	0.00	7.52
79.470	26.35	36.07	0.15	7.67
79.500	26.35	36.07	0.15	7.67
79.530	26.22	35.94	0.15	7.67
79.559	26.22	35.94	0.04	7.56
79.589	26.22	35.94	0.04	7.56
79.619	26.47	36.19	0.04	7.56
79.649	26.47	36.19	0.10	7.62
79.678	26.47	36.19	0.10	7.62
79.708	26.47	36.19	0.10	7.62
79.738	26.47	36.19	0.13	7.65
79.768	26.47	36.19	0.13	7.65
79.797	26.41	36.13	0.13	7.65
79.827	26.41	36.13	0.00	7.52
79.857	26.41	36.13	0.00	7.52
79.887	26.46	36.18	0.00	7.52
79.916	26.46	36.18	0.15	7.67
79.946	26.46	36.18	0.15	7.67
79.976	26.39	36.11	0.15	7.67
80.006	26.39	36.11	0.04	7.56
80.035	26.39	36.11	0.04	7.56
80.065	26.52	36.24	0.04	7.56
80.095	26.52	36.24	0.10	7.62
80.125	26.52	36.24	0.10	7.62
80.155	26.52	36.24	0.10	7.62
80.184	26.52	36.24	0.12	7.64
80.214	26.52	36.24	0.12	7.64
80.244	26.51	36.23	0.12	7.64
80.274	26.51	36.23	0.00	7.52
80.303	26.51	36.23	0.00	7.52
80.333	26.42	36.14	0.00	7.52
80.363	26.42	36.14	0.15	7.67
80.393	26.42	36.14	0.15	7.67
80.422	26.36	36.08	0.15	7.67
80.452	26.36	36.08	0.04	7.55
80.482	26.36	36.08	0.04	7.55
80.512	26.46	36.18	0.04	7.55
80.541	26.46	36.18	0.10	7.62
80.571	26.46	36.18	0.10	7.62
80.601	26.52	36.24	0.10	7.62
80.631	26.52	36.24	0.12	7.64
80.660	26.52	36.24	0.12	7.64
80.690	26.47	36.19	0.12	7.64
80.720	26.47	36.19	0.01	7.53
80.750	26.47	36.19	0.01	7.53
80.780	26.56	36.28	0.01	7.53
80.809	26.56	36.28	0.16	7.68
80.839	26.56	36.28	0.16	7.68
80.869	26.42	36.14	0.16	7.68
80.899	26.42	36.14	0.03	7.55
80.928	26.42	36.14	0.03	7.55
80.958	26.65	36.37	0.03	7.55
80.988	26.65	36.37	0.10	7.62
81.018	26.65	36.37	0.10	7.62
81.047	26.57	36.29	0.10	7.62
81.077	26.57	36.29	0.11	7.63
81.107	26.57	36.29	0.11	7.63
81.137	26.55	36.27	0.11	7.63
81.166	26.55	36.27	0.01	7.53
81.196	26.55	36.27	0.01	7.53
81.226	26.57	36.29	0.01	7.53
81.256	26.57	36.29	0.16	7.68
81.285	26.57	36.29	0.16	7.68
81.315	26.49	36.21	0.16	7.68
81.345	26.49	36.21	0.03	7.55
81.375	26.49	36.21	0.03	7.55
81.405	26.47	36.19	0.03	7.55
81.434	26.47	36.19	0.11	7.63
81.464	26.47	36.19	0.11	7.63
81.494	26.54	36.26	0.11	7.63
81.524	26.54	36.26	0.11	7.63
81.553	26.54	36.26	0.11	7.63
81.583	26.43	36.15	0.11	7.63
81.613	26.43	36.15	0.01	7.53
81.643	26.43	36.15	0.01	7.53
81.672	26.36	36.08	0.01	7.53
81.702	26.36	36.08	0.15	7.67
81.732	26.36	36.08	0.15	7.67
81.762	26.31	36.03	0.15	7.67
81.791	26.31	36.03	0.03	7.55
81.821	26.31	36.03	0.03	7.55
81.851	26.40	36.12	0.03	7.55
81.881	26.40	36.12	0.11	7.63
81.911	26.40	36.12	0.11	7.63
81.940	26.31	36.03	0.11	7.63
81.970	26.31	36.03	0.10	7.62
82.000	26.31	36.03	0.10	7.62
82.030	26.26	35.98	0.10	7.62
82.059	26.26	35.98	0.00	7.52
82.089	26.26	35.98	0.00	7.52
82.119	26.21	35.93	0.00	7.52
82.149	26.21	35.93	0.16	7.68
82.178	26.21	35.93	0.16	7.68
82.208	26.17	35.89	0.16	7.68
82.238	26.17	35.89	0.03	7.55
82.268	26.17	35.89	0.03	7.55
82.297	26.30	36.02	0.03	7.55
82.327	26.30	36.02	0.11	7.63
82.357	26.30	36.02	0.11	7.63
82.387	26.29	36.01	0.11	7.63
82.417	26.29	36.01	0.10	7.62
82.446	26.29	36.01	0.10	7.62
82.476	24.89	34.61	0.10	7.62
82.506	24.89	34.61	0.00	7.52
82.536	24.89	34.61	0.00	7.52
82.565	-2.40	7.32	0.00	7.52
82.595	-2.40	7.32	0.15	7.67
82.625	-2.40	7.32	0.15	7.67
82.655	-4.25	5.47	0.15	7.67
82.684	-4.25	5.47	0.02	7.54
82.714	-4.25	5.47	0.02	7.54
82.744	3.08	12.80	0.02	7.54
82.774	3.08	12.80	0.11	7.63
82.804	3.08	12.80	0.11	7.63
82.833	7.75	17.47	0.11	7.63
82.863	7.75	17.47	0.09	7.61
82.893	7.75	17.47	0.09	7.61
82.923	3.13	12.85	0.09	7.61
82.952	3.13	12.85	0.01	7.53
82.982	3.13	12.85	0.01	7.53
83.012	0.76	10.48	0.01	7.53
83.042	0.76	10.48	0.16	7.68
83.071	0.76	10.48	0.16	7.68
83.101	2.75	12.47	0.16	7.68
83.131	2.75	12.47	0.02	7.54
83.161	2.75	12.47	0.02	7.54
83.191	4.65	14.37	0.02	7.54
83.220	4.65	14.37	0.11	7.63
83.250	4.65	14.37	0.11	7.63
83.280	3.42	13.14	0.11	7.63
83.310	3.42	13.14	0.08	7.60
83.339	3.42	13.14	0.08	7.60
83.369	2.25	11.97	0.08	7.60
83.399	2.25	11.97	0.01	7.53
83.429	2.25	11.97	0.01	7.53
83.459	2.88	12.60	0.01	7.53
83.488	2.88	12.60	0.16	7.68
83.518	2.88	12.60	0.16	7.68
83.548	3.60	13.32	0.16	7.68
83.578	3.60	13.32	0.01	7.53
83.607	3.60	13.32	0.01	7.53
83.637	3.30	13.02	0.01	7.53
83.667	3.30	13.02	0.11	7.63
83.697	3.30	13.02	0.11	7.63
83.726	2.90	12.62	0.11	7.63
83.756	2.90	12.62	0.08	7.60
83.786	2.90	12.62	0.08	7.60
83.816	3.00	12.72	0.08	7.60
83.846	3.00	12.72	0.01	7.53
83.875	3.00	12.72	0.01	7.53
83.905	3.33	13.05	0.01	7.53
83.935	3.33	13.05	0.15	7.67
83.965	3.33	13.05	0.15	7.67
83.994	3.12	12.84	0.15	7.67
84.024	3.12	12.84	0.01	7.53
84.054	3.12	12.84	0.01	7.53
84.084	3.02	12.74	0.01	7.53
84.113	3.02	12.74	0.11	7.63
84.143	3.02	12.74	0.11	7.63
84.173	3.09	12.81	0.11	7.63
84.203	3.09	12.81	0.08	7.60
84.233	3.09	12.81	0.08	7.60
84.262	3.19	12.91	0.08	7.60
84.292	3.19	12.91	0.02	7.54
84.322	3.19	12.91	0.02	7.54
84.352	3.22	12.94	0.02	7.54
84.381	3.22	12.94	0.16	7.68
84.411	3.22	12.94	0.16	7.68
84.441	3.08	12.79	0.16	7.68
84.471	3.08	12.79	0.01	7.53
84.500	3.08	12.79	0.01	7.53
84.530	3.12	12.84	0.01	7.53
84.560	3.12	12.84	0.11	7.63
84.590	3.12	12.84	0.11	7.63
84.620	3.15	12.87	0.11	7.63
84.649	3.15	12.87	0.07	7.59
84.679	3.15	12.87	0.07	7.59
84.709	3.13	12.85	0.07	7.59
84.739	3.13	12.85	0.02	7.54
84.768	3.13	12.85	0.02	7.54
84.798	3.14	12.86	0.02	7.54
84.828	3.14	12.86	0.15	7.67
84.858	3.14	12.86	0.15	7.67
84.887	3.13	12.85	0.15	7.67
84.917	3.13	12.85	0.01	7.53
84.947	3.13	12.85	0.01	7.53
84.977	3.17	12.89	0.01	7.53
85.007	3.17	12.89	0.11	7.63
85.036	3.17	12.89	0.11	7.63
85.066	3.18	12.90	0.11	7.63
85.096	3.18	12.90	0.07	7.59
85.126	3.18	12.90	0.07	7.59
85.155	3.18	12.89	0.07	7.59
85.185	3.18	12.89	0.03	7.54
85.215	3.18	12.89	0.03	7.54
85.245	3.20	12.92	0.03	7.54
85.275	3.20	12.92	0.16	7.68
85.304	3.20	12.92	0.16	7.68
85.334	3.08	12.80	0.16	7.68
85.364	3.08	12.80	0.01	7.53
85.394	3.08	12.80	0.01	7.53
85.423	3.14	12.85	0.01	7.53
85.453	3.14	12.85	0.12	7.64
85.483	3.14	12.85	0.12	7.64
85.513	3.15	12.87	0.12	7.64
85.542	3.15	12.87	0.06	7.58
85.572	3.15	12.87	0.06	7.58
85.602	3.09	12.81	0.06	7.58
85.632	3.09	12.81	0.03	7.55
85.662	3.09	12.81	0.03	7.55
85.691	3.14	12.86	0.03	7.55
85.721	3.14	12.86	0.16	7.68
85.751	3.14	12.86	0.16	7.68
85.781	3.09	12.80	0.16	7.68
85.810	3.09	12.80	0.01	7.53
85.840	3.09	12.80	0.01	7.53
85.870	3.11	12.83	0.01	7.53
85.900	3.11	12.83	0.11	7.63
85.930	3.11	12.83	0.11	7.63
85.959	3.09	12.81	0.11	7.63
85.989	3.09	12.81	0.06	7.58
86.019	3.09	12.81	0.06	7.58
86.049	3.11	12.83	0.06	7.58
86.078	3.11	12.83	0.04	7.55
86.108	3.11	12.83	0.04	7.55
86.138	3.21	12.93	0.04	7.55
86.168	3.21	12.93	0.16	7.68
86.197	3.21	12.93	0.16	7.68
86.227	3.14	12.86	0.16	7.68
86.257	3.14	12.86	0.01	7.53
86.287	3.14	12.86	0.01	7.53
86.317	3.19	12.91	0.01	7.53
86.346	3.19	12.91	0.12	7.64
86.376	3.19	12.91	0.12	7.64
86.406	3.27	12.99	0.12	7.64
86.436	3.27	12.99	0.06	7.58
86.465	3.27	12.99	0.06	7.58
86.495	3.18	12.90	0.06	7.58
86.525	3.18	12.90	0.03	7.55
86.555	3.18	12.90	0.03	7.55
86.584	3.18	12.90	0.03	7.55
86.614	3.18	12.90	0.16	7.68
86.644	3.18	12.90	0.16	7.68
86.674	3.10	12.82	0.16	7.68
86.704	3.10	12.82	0.00	7.52
86.733	3.10	12.82	0.00	7.52
86.763	3.10	12.82	0.00	7.52
86.793	3.10	12.82	0.13	7.65
86.823	3.10	12.82	0.13	7.65
86.852	3.28	13.00	0.13	7.65
86.882	3.28	13.00	0.06	7.58
86.912	3.28	13.00	0.06	7.58
86.942	3.26	12.98	0.06	7.58
86.972	3.26	12.98	0.04	7.56
87.001	3.26	12.98	0.04	7.56
87.031	3.20	12.92	0.04	7.56
87.061	3.20	12.92	0.16	7.68
87.091	3.20	12.92	0.16	7.68
87.120	3.09	12.81	0.16	7.68
87.150	3.09	12.81	0.00	7.52
87.180	3.09	12.81	0.00	7.52
87.210	3.12	12.84	0.00	7.52
87.239	3.12	12.84	0.12	7.64
87.269	3.12	12.84	0.12	7.64
87.299	3.08	12.80	0.12	7.64
87.329	3.08	12.80	0.06	7.58
87.359	3.08	12.80	0.06	7.58
87.388	3.05	12.77	0.06	7.58
87.418	3.05	12.77	0.04	7.56
87.448	3.05	12.77	0.04	7.56
87.478	3.16	12.88	0.04	7.56
87.507	3.16	12.88	0.15	7.67
87.537	3.16	12.88	0.15	7.67
87.567	3.14	12.85	0.15	7.67
87.597	3.14	12.85	0.00	7.52
87.627	3.14	12.85	0.00	7.52
87.656	3.21	12.93	0.00	7.52
87.686	3.21	12.93	0.13	7.65
87.716	3.21	12.93	0.13	7.65
87.746	3.21	12.93	0.13	7.65
87.775	3.21	12.93	0.05	7.57
87.805	3.21	12.93	0.05	7.57
87.835	3.16	12.88	0.05	7.57
87.865	3.16	12.88	0.05	7.57
87.894	3.16	12.88	0.05	7.57
87.924	3.28	12.99	0.05	7.57
87.954	3.28	12.99	0.16	7.68
87.984	3.28	12.99	0.16	7.68
88.014	3.21	12.93	0.16	7.68
88.043	3.21	12.93	0.00	7.52
88.073	3.21	12.93	0.00	7.52
